 18O2;(6,0);79K;52724-3010 cm-1;4428 pts
      WNO        SIGMA
  52724.085     1.341E-22
  52724.149     1.155E-22
  52724.213     1.031E-22
  52724.277     5.998E-23
  52724.341     8.450E-23
  52724.406     1.029E-22
  52724.470     9.670E-23
  52724.534     4.135E-23
  52724.598     7.197E-23
  52724.663     1.027E-22
  52724.727     9.031E-23
  52724.791     7.180E-23
  52724.855     3.494E-23
  52724.920     4.101E-23
  52724.984     5.321E-23
  52725.048     4.702E-23
  52725.112     4.142E-24
  52725.177    -3.247E-23
  52725.241    -3.253E-23
  52725.305    -2.650E-23
  52725.369    -5.694E-23
  52725.434    -5.093E-23
  52725.498     2.213E-23
  52725.562     6.497E-23
  52725.626     1.018E-22
  52725.691     1.018E-22
  52725.755     1.326E-22
  52725.819     1.263E-22
  52725.883     1.016E-22
  52725.947     5.848E-23
  52726.012    -2.714E-23
  52726.076    -7.576E-23
  52726.140    -8.188E-23
  52726.204    -2.731E-23
  52726.269     9.210E-24
  52726.333     7.656E-23
  52726.397     1.135E-22
  52726.461     1.072E-22
  52726.526     4.569E-23
  52726.590     8.922E-24
  52726.654     3.945E-23
  52726.718     8.237E-23
  52726.783     1.486E-23
  52726.847    -6.434E-23
  52726.911    -8.257E-23
  52726.975    -6.445E-23
  52727.040    -4.023E-23
  52727.104    -3.747E-24
  52727.168     1.451E-23
  52727.232     8.345E-24
  52727.297    -4.653E-23
  52727.361    -5.266E-23
  52727.425    -3.449E-23
  52727.489    -4.063E-23
  52727.554    -2.852E-23
  52727.618    -2.249E-23
  52727.682     4.466E-23
  52727.746     9.992E-23
  52727.811     8.139E-23
  52727.875     8.133E-23
  52727.939     8.743E-23
  52728.003     1.244E-22
  52728.068     1.615E-22
  52728.132     1.862E-22
  52728.196     1.924E-22
  52728.260     1.613E-22
  52728.325     9.940E-23
  52728.389     4.402E-23
  52728.453    -4.958E-24
  52728.517     1.942E-23
  52728.582     1.053E-22
  52728.646     1.176E-22
  52728.710     9.289E-23
  52728.774     4.981E-23
  52728.839    -1.140E-23
  52728.903    -8.436E-23
  52728.967    -7.230E-23
  52729.031    -2.376E-23
  52729.096    -1.163E-23
  52729.160    -2.388E-23
  52729.224    -5.434E-23
  52729.288    -6.653E-23
  52729.353    -3.014E-23
  52729.417     6.385E-24
  52729.481     4.917E-23
  52729.545     8.599E-23
  52729.610     6.133E-23
  52729.674     3.674E-23
  52729.738     3.056E-23
  52729.802     5.502E-23
  52729.867     8.570E-23
  52729.931     3.651E-23
  52729.995    -5.503E-23
  52730.059    -4.294E-23
  52730.124    -4.907E-23
  52730.188    -3.089E-23
  52730.252    -2.486E-23
  52730.316    -5.287E-25
  52730.381     2.998E-23
  52730.445     7.902E-23
  52730.509     1.469E-22
  52730.573     1.221E-22
  52730.638     1.035E-22
  52730.702     7.879E-23
  52730.766     4.802E-23
  52730.830     6.638E-23
  52730.895     1.156E-22
  52730.959     9.704E-23
  52731.023     2.940E-23
  52731.087     7.230E-23
  52731.152     1.092E-22
  52731.216     1.524E-22
  52731.280     2.083E-22
  52731.344     2.145E-22
  52731.409     1.399E-22
  52731.473     1.089E-22
  52731.537     1.027E-22
  52731.601     1.397E-22
  52731.666     1.831E-22
  52731.730     1.582E-22
  52731.794     1.210E-22
  52731.859     1.086E-22
  52731.923     1.270E-22
  52731.987     1.394E-22
  52732.051     1.765E-22
  52732.116     2.013E-22
  52732.180     2.013E-22
  52732.244     1.825E-22
  52732.308     1.205E-22
  52732.373     3.432E-23
  52732.437     4.652E-23
  52732.501     7.103E-23
  52732.565     6.482E-23
  52732.630     7.706E-23
  52732.694     8.316E-23
  52732.758     7.695E-23
  52732.822     6.459E-23
  52732.887    -2.113E-23
  52732.951    -5.768E-23
  52733.015    -5.774E-23
  52733.079    -2.130E-23
  52733.144     1.526E-23
  52733.208     6.425E-23
  52733.272     1.196E-22
  52733.337     1.629E-22
  52733.401     1.567E-22
  52733.465     1.566E-22
  52733.529     2.001E-22
  52733.594     1.938E-22
  52733.658     1.999E-22
  52733.722     1.750E-22
  52733.786     1.254E-22
  52733.851     1.068E-22
  52733.915     1.129E-22
  52733.979     8.816E-23
  52734.043     5.735E-23
  52734.108    -2.223E-23
  52734.172    -2.229E-23
  52734.236     2.652E-23
  52734.301     1.249E-22
  52734.365     1.806E-22
  52734.429     1.806E-22
  52734.493     1.124E-22
  52734.558     6.918E-23
  52734.622     4.456E-23
  52734.686     9.986E-23
  52734.750     1.431E-22
  52734.815     1.306E-22
  52734.879     1.182E-22
  52734.943     5.654E-23
  52735.007    -5.953E-23
  52735.072    -1.261E-22
  52735.136    -1.322E-22
  52735.200    -1.383E-22
  52735.265    -8.401E-23
  52735.329     2.554E-23
  52735.393     8.689E-23
  52735.457     9.300E-23
  52735.522     6.832E-23
  52735.586     4.369E-23
  52735.650    -2.361E-23
  52735.714    -6.623E-23
  52735.779    -6.629E-23
  52735.843    -7.847E-23
  52735.907    -4.211E-23
  52735.971    -1.171E-23
  52736.036     4.424E-25
  52736.100     6.780E-23
  52736.164     1.047E-22
  52736.229     9.847E-23
  52736.293     1.108E-22
  52736.357     1.602E-22
  52736.421     1.912E-22
  52736.486     2.036E-22
  52736.550     1.725E-22
  52736.614     1.414E-22
  52736.678     9.807E-23
  52736.743     6.722E-23
  52736.807     3.034E-23
  52736.871    -1.252E-23
  52736.936    -2.477E-23
  52737.000    -2.482E-23
  52737.064    -1.879E-23
  52737.128    -5.387E-25
  52737.193     2.386E-23
  52737.257     3.606E-23
  52737.321     1.763E-23
  52737.386    -6.875E-24
  52737.450    -1.304E-23
  52737.514    -6.991E-24
  52737.578     5.167E-24
  52737.643     1.122E-23
  52737.707     2.953E-23
  52737.771     2.335E-23
  52737.835     4.167E-23
  52737.900     4.161E-23
  52737.964     5.997E-23
  52738.028     9.069E-23
  52738.093     1.339E-22
  52738.157     1.959E-22
  52738.221     1.772E-22
  52738.285     1.399E-22
  52738.350     9.040E-23
  52738.414     2.277E-23
  52738.478    -2.615E-23
  52738.542    -6.877E-23
  52738.607    -8.701E-23
  52738.671    -9.313E-23
  52738.735    -3.856E-23
  52738.800    -3.862E-23
  52738.864    -2.650E-23
  52738.928    -8.261E-24
  52738.992     1.613E-23
  52739.057     7.745E-23
  52739.121     1.206E-22
  52739.185     1.577E-22
  52739.250     7.112E-23
  52739.314    -6.946E-23
  52739.378    -1.841E-22
  52739.442    -2.500E-22
  52739.507    -2.321E-22
  52739.571    -1.362E-22
  52739.635    -6.368E-23
  52739.700    -2.847E-24
  52739.764     8.297E-23
  52739.828     8.291E-23
  52739.892     3.369E-23
  52739.957     9.145E-24
  52740.021    -9.242E-24
  52740.085    -4.586E-23
  52740.150    -2.156E-23
  52740.214     2.728E-23
  52740.278     5.175E-23
  52740.342     1.442E-22
  52740.407     2.376E-22
  52740.471     3.066E-22
  52740.535     3.128E-22
  52740.599     2.499E-22
  52740.664     1.937E-22
  52740.728     1.812E-22
  52740.792     1.562E-22
  52740.857     1.128E-22
  52740.921     9.426E-23
  52740.985     7.571E-23
  52741.049     5.720E-23
  52741.114     3.873E-23
  52741.178     2.029E-23
  52741.242     6.318E-23
  52741.307     1.248E-22
  52741.371     1.744E-22
  52741.435     1.247E-22
  52741.500     9.374E-23
  52741.564     3.219E-23
  52741.628    -4.116E-23
  52741.692    -9.584E-23
  52741.757    -1.562E-22
  52741.821    -1.623E-22
  52741.885    -7.177E-23
  52741.950    -4.145E-23
  52742.014    -8.402E-23
  52742.078    -1.143E-22
  52742.142    -7.807E-23
  52742.207    -2.341E-23
  52742.271     3.769E-23
  52742.335     9.916E-23
  52742.400     1.053E-22
  52742.464     3.138E-23
  52742.528    -4.805E-23
  52742.592    -1.269E-22
  52742.657    -1.269E-22
  52742.721    -4.823E-23
  52742.785    -1.172E-23
  52742.850    -1.788E-23
  52742.914    -3.014E-23
  52742.978    -5.792E-24
  52743.042     2.599E-25
  52743.107    -5.908E-24
  52743.171     4.302E-23
  52743.235     1.478E-22
  52743.300     2.225E-22
  52743.364     2.349E-22
  52743.428     1.849E-22
  52743.492     1.228E-22
  52743.557     1.166E-22
  52743.621     1.599E-22
  52743.685     2.284E-22
  52743.750     2.471E-22
  52743.814     2.721E-22
  52743.878     2.282E-22
  52743.943     1.286E-22
  52744.007     6.069E-23
  52744.071     2.994E-23
  52744.135     6.058E-23
  52744.200     1.284E-22
  52744.264     1.531E-22
  52744.328     1.097E-22
  52744.393     1.220E-22
  52744.457     1.282E-22
  52744.521     1.219E-22
  52744.585     1.033E-22
  52744.650     8.474E-23
  52744.714     4.777E-23
  52744.778    -1.351E-23
  52744.843    -7.443E-23
  52744.907    -1.169E-22
  52744.971    -9.273E-23
  52745.036    -6.853E-23
  52745.100    -7.698E-24
  52745.164     6.581E-23
  52745.228     7.806E-23
  52745.293     2.271E-23
  52745.357     6.563E-23
  52745.421     1.087E-22
  52745.486     1.582E-22
  52745.550     2.267E-22
  52745.614     2.454E-22
  52745.679     2.579E-22
  52745.743     2.453E-22
  52745.807     1.517E-22
  52745.871     1.083E-22
  52745.936     1.703E-22
  52746.000     2.076E-22
  52746.064     1.888E-22
  52746.129     1.514E-22
  52746.193     9.569E-23
  52746.257     4.638E-23
  52746.322     5.862E-23
  52746.386     1.079E-22
  52746.450     1.698E-22
  52746.514     2.823E-22
  52746.579     3.833E-22
  52746.643     3.833E-22
  52746.707     3.832E-22
  52746.772     3.831E-22
  52746.836     3.450E-22
  52746.900     2.505E-22
  52746.965     1.012E-22
  52747.029    -2.164E-23
  52747.093    -7.645E-23
  52747.157    -7.044E-23
  52747.222    -4.618E-23
  52747.286    -1.577E-23
  52747.350    -9.719E-24
  52747.415     3.920E-23
  52747.479     4.529E-23
  52747.543    -3.783E-24
  52747.608    -5.261E-23
  52747.672    -5.875E-23
  52747.736    -3.447E-23
  52747.801    -4.670E-23
  52747.865    -6.500E-23
  52747.929    -6.506E-23
  52747.993    -6.512E-23
  52748.058    -4.085E-23
  52748.122    -2.872E-23
  52748.186    -3.487E-23
  52748.251    -1.663E-23
  52748.315    -1.669E-23
  52748.379    -7.761E-23
  52748.444    -8.979E-23
  52748.508    -7.165E-23
  52748.572    -4.131E-23
  52748.637    -3.528E-23
  52748.701    -3.533E-23
  52748.765    -2.320E-23
  52748.829    -6.587E-23
  52748.894    -1.205E-22
  52748.958    -1.567E-22
  52749.022    -1.266E-22
  52749.087    -7.217E-23
  52749.151    -5.400E-23
  52749.215    -1.750E-23
  52749.280     6.826E-23
  52749.344     9.286E-23
  52749.408     9.898E-23
  52749.473     1.113E-22
  52749.537     9.886E-23
  52749.601     1.297E-22
  52749.665     9.875E-23
  52749.730     1.260E-23
  52749.794    -1.031E-22
  52749.858    -1.695E-22
  52749.923    -1.756E-22
  52749.987    -1.214E-22
  52750.051    -3.655E-23
  52750.116     1.226E-23
  52750.180     4.900E-23
  52750.244     7.972E-23
  52750.309     1.539E-22
  52750.373     2.036E-22
  52750.437     2.098E-22
  52750.502     1.911E-22
  52750.566     1.475E-22
  52750.630     1.164E-22
  52750.694     9.165E-23
  52750.759     7.925E-23
  52750.823     1.162E-22
  52750.887     9.765E-23
  52750.952     1.223E-22
  52751.016     9.753E-23
  52751.080     2.364E-23
  52751.145    -7.019E-24
  52751.209     2.966E-23
  52751.273    -1.021E-24
  52751.338    -6.812E-23
  52751.402    -6.818E-23
  52751.466    -2.563E-23
  52751.531     2.937E-23
  52751.595     6.618E-23
  52751.659     9.695E-23
  52751.724     1.031E-22
  52751.788     1.278E-22
  52751.852     1.525E-22
  52751.916     1.400E-22
  52751.981     1.090E-22
  52752.045     1.275E-22
  52752.109     1.958E-22
  52752.174     2.458E-22
  52752.238     2.395E-22
  52752.302     2.144E-22
  52752.367     2.018E-22
  52752.431     2.143E-22
  52752.495     1.830E-22
  52752.560     1.209E-22
  52752.624     1.146E-22
  52752.688     1.022E-22
  52752.753     9.888E-24
  52752.817    -6.337E-23
  52752.881    -6.343E-23
  52752.946    -3.305E-23
  52753.010    -2.091E-23
  52753.074     1.572E-23
  52753.139     7.712E-23
  52753.203     1.265E-22
  52753.267     1.823E-22
  52753.331     2.135E-22
  52753.396     2.698E-22
  52753.460     2.760E-22
  52753.524     2.446E-22
  52753.589     2.320E-22
  52753.653     2.132E-22
  52753.717     2.069E-22
  52753.782     1.384E-22
  52753.846     8.882E-23
  52753.910     1.073E-22
  52753.975     1.072E-22
  52754.039     8.864E-23
  52754.103     1.009E-22
  52754.168     8.853E-23
  52754.232     7.613E-23
  52754.296     5.145E-23
  52754.361     1.457E-23
  52754.425     2.264E-24
  52754.489    -8.310E-23
  52754.554    -7.708E-23
  52754.618     8.212E-24
  52754.682     1.066E-22
  52754.747     2.060E-22
  52754.811     2.372E-22
  52754.875     1.996E-22
  52754.940     1.684E-22
  52755.004     1.497E-22
  52755.068     1.186E-22
  52755.133     1.310E-22
  52755.197     1.806E-22
  52755.261     1.992E-22
  52755.326     2.117E-22
  52755.390     1.742E-22
  52755.454     8.737E-23
  52755.519     8.114E-23
  52755.583     8.726E-23
  52755.647     1.305E-22
  52755.712     1.677E-22
  52755.776     1.490E-22
  52755.840     9.320E-23
  52755.904     1.318E-23
  52755.969    -2.967E-23
  52756.033    -5.298E-24
  52756.097     3.754E-23
  52756.162     7.440E-23
  52756.226     1.300E-22
  52756.290     1.299E-22
  52756.355     1.113E-22
  52756.419     1.112E-22
  52756.483     1.174E-22
  52756.548     1.421E-22
  52756.612     1.420E-22
  52756.676     1.296E-22
  52756.741     1.047E-22
  52756.805     1.109E-22
  52756.869     1.108E-22
  52756.934     1.293E-22
  52756.998     1.417E-22
  52757.062     1.230E-22
  52757.127     9.822E-23
  52757.191     9.198E-23
  52757.255     1.043E-22
  52757.320     1.042E-22
  52757.384     1.165E-22
  52757.448     1.041E-22
  52757.513     8.552E-23
  52757.577     6.081E-23
  52757.641     5.460E-23
  52757.706     6.685E-23
  52757.770     4.218E-23
  52757.834     1.145E-23
  52757.899     1.139E-23
  52757.963     6.662E-23
  52758.027     1.408E-22
  52758.092     1.718E-22
  52758.156     1.220E-22
  52758.220     6.023E-23
  52758.285     9.718E-23
  52758.349     1.591E-22
  52758.413     1.280E-22
  52758.478     3.540E-23
  52758.542     4.685E-24
  52758.606     4.627E-24
  52758.671     3.523E-23
  52758.735     5.977E-23
  52758.799     3.511E-23
  52758.864     2.892E-23
  52758.928     1.046E-23
  52758.992    -1.841E-24
  52759.057     4.222E-24
  52759.121    -1.956E-24
  52759.186    -5.085E-23
  52759.250    -6.308E-23
  52759.314    -3.268E-23
  52759.379    -2.663E-23
  52759.443    -2.059E-23
  52759.507    -8.420E-24
  52759.572     3.760E-24
  52759.636     4.665E-23
  52759.700     1.021E-22
  52759.765     7.733E-23
  52759.829     4.033E-23
  52759.893     7.721E-23
  52759.958     9.567E-23
  52760.022     5.861E-23
  52760.086     7.087E-23
  52760.151     6.465E-23
  52760.215     9.544E-23
  52760.279     1.201E-22
  52760.344     1.387E-22
  52760.408     1.759E-22
  52760.472     1.386E-22
  52760.537     1.199E-22
  52760.601     8.892E-23
  52760.665     3.958E-23
  52760.730     2.724E-23
  52760.794     2.661E-24
  52760.858    -5.844E-23
  52760.923    -8.281E-23
  52760.987    -1.192E-22
  52761.051    -1.132E-22
  52761.116    -1.012E-22
  52761.180    -6.481E-23
  52761.244    -2.220E-23
  52761.309     5.745E-23
  52761.373     6.972E-23
  52761.437     1.129E-22
  52761.502     1.501E-22
  52761.566     1.190E-22
  52761.630     4.486E-23
  52761.695    -4.270E-24
  52761.759    -4.097E-23
  52761.824    -2.273E-23
  52761.888    -4.443E-24
  52761.952     7.744E-24
  52762.017     5.682E-23
  52762.081     8.141E-23
  52762.145     1.309E-22
  52762.210     1.370E-22
  52762.274     1.494E-22
  52762.338     1.617E-22
  52762.403     1.430E-22
  52762.467     1.244E-22
  52762.531     9.954E-23
  52762.596     7.478E-23
  52762.660     1.118E-22
  52762.724     1.614E-22
  52762.789     1.800E-22
  52762.853     1.737E-22
  52762.917     2.049E-22
  52762.982     1.798E-22
  52763.046     1.860E-22
  52763.110     1.735E-22
  52763.175     1.423E-22
  52763.239     1.175E-22
  52763.304     1.050E-22
  52763.368     6.176E-23
  52763.432     3.095E-23
  52763.497     3.089E-23
  52763.561     5.543E-23
  52763.625     8.620E-23
  52763.690     1.047E-22
  52763.754     9.844E-23
  52763.818     6.136E-23
  52763.883     1.827E-23
  52763.947     1.821E-23
  52764.011     4.272E-23
  52764.076     7.345E-23
  52764.140     6.723E-23
  52764.204     2.412E-23
  52764.269    -1.881E-23
  52764.333    -7.373E-23
  52764.398    -8.593E-23
  52764.462    -9.813E-23
  52764.526    -6.174E-23
  52764.591     2.377E-23
  52764.655     6.677E-23
  52764.719     4.208E-23
  52764.784    -3.759E-23
  52764.848    -9.241E-23
  52764.912    -1.939E-23
  52764.977     1.097E-22
  52765.041     2.280E-22
  52765.105     2.656E-22
  52765.170     2.970E-22
  52765.234     2.341E-22
  52765.298     1.280E-22
  52765.363     3.536E-23
  52765.427    -3.207E-23
  52765.492    -8.692E-23
  52765.556    -1.112E-22
  52765.620    -1.052E-22
  52765.685    -3.840E-23
  52765.749     1.046E-23
  52765.813     2.267E-23
  52765.878    -1.909E-24
  52765.942    -2.643E-23
  52766.006    -3.869E-23
  52766.071    -4.485E-23
  52766.135    -5.100E-23
  52766.199    -5.106E-23
  52766.264    -3.282E-23
  52766.328    -2.314E-24
  52766.393     3.443E-23
  52766.457     1.146E-22
  52766.521     1.829E-22
  52766.586     2.328E-22
  52766.650     2.391E-22
  52766.714     1.827E-22
  52766.779     1.081E-22
  52766.843     8.948E-23
  52766.907     1.018E-22
  52766.972     1.079E-22
  52767.036     1.017E-22
  52767.101     8.308E-23
  52767.165     7.067E-23
  52767.229     7.679E-23
  52767.294     1.520E-23
  52767.358    -3.991E-23
  52767.422    -5.825E-23
  52767.487    -2.782E-23
  52767.551    -1.565E-23
  52767.615    -3.472E-24
  52767.680     3.942E-23
  52767.744     5.167E-23
  52767.809     9.480E-23
  52767.873     1.195E-22
  52767.937     8.232E-23
  52768.002     8.227E-23
  52768.066     5.754E-23
  52768.130     2.059E-23
  52768.195     2.667E-23
  52768.259    -4.072E-23
  52768.323    -1.379E-22
  52768.388    -1.982E-22
  52768.452    -2.522E-22
  52768.517    -2.403E-22
  52768.581    -2.284E-22
  52768.645    -1.864E-22
  52768.710    -1.564E-22
  52768.774    -1.323E-22
  52768.838    -1.081E-22
  52768.903    -1.021E-22
  52768.967    -7.181E-23
  52769.031    -5.361E-23
  52769.096    -5.976E-23
  52769.160    -1.710E-23
  52769.225     1.206E-24
  52769.289     3.183E-23
  52769.353     9.959E-23
  52769.418     1.119E-22
  52769.482     9.948E-23
  52769.546     1.180E-22
  52769.611     1.055E-22
  52769.675     6.842E-23
  52769.740    -2.373E-23
  52769.804    -8.472E-23
  52769.868    -9.692E-23
  52769.933    -7.876E-23
  52769.997    -6.057E-23
  52770.061    -6.671E-23
  52770.126    -5.459E-23
  52770.190     3.377E-25
  52770.254     6.790E-23
  52770.319     1.235E-22
  52770.383     1.857E-22
  52770.448     2.482E-22
  52770.512     2.043E-22
  52770.576     1.481E-22
  52770.641     1.046E-22
  52770.705     7.366E-23
  52770.769     6.743E-23
  52770.834     6.738E-23
  52770.898     4.883E-23
  52770.963    -1.260E-23
  52771.027    -7.366E-23
  52771.091    -7.372E-23
  52771.156    -3.722E-23
  52771.220    -1.895E-23
  52771.284     5.464E-23
  52771.349     9.161E-23
  52771.413     7.302E-23
  52771.478     5.447E-23
  52771.542     7.291E-23
  52771.606     8.520E-23
  52771.671     1.223E-22
  52771.735     1.098E-22
  52771.799     6.034E-23
  52771.864     1.109E-23
  52771.928    -1.347E-23
  52771.993     1.711E-23
  52772.057     5.395E-23
  52772.121     7.856E-23
  52772.186     5.999E-23
  52772.250     3.531E-23
  52772.314     2.911E-23
  52772.379     2.905E-23
  52772.443    -7.813E-24
  52772.508     1.665E-23
  52772.572     2.273E-23
  52772.636    -1.862E-24
  52772.701    -5.691E-23
  52772.765    -1.056E-22
  52772.829    -9.351E-23
  52772.894    -7.534E-23
  52772.958    -3.884E-23
  52773.023     4.077E-23
  52773.087     9.005E-23
  52773.151     1.086E-22
  52773.216     1.147E-22
  52773.280     9.606E-23
  52773.344     5.279E-23
  52773.409     3.571E-24
  52773.473    -2.709E-23
  52773.538    -8.797E-24
  52773.602     3.398E-24
  52773.666     3.404E-23
  52773.731     3.398E-23
  52773.795     2.777E-23
  52773.860     2.772E-23
  52773.924     2.152E-23
  52773.988     8.306E-23
  52774.053     1.077E-22
  52774.117     1.139E-22
  52774.181     8.907E-23
  52774.246     5.198E-23
  52774.310     4.576E-23
  52774.375     4.571E-23
  52774.439     5.797E-23
  52774.503     7.642E-23
  52774.568     8.254E-23
  52774.632     1.072E-22
  52774.696     6.390E-23
  52774.761    -2.214E-23
  52774.825     2.685E-23
  52774.890     9.461E-23
  52774.954     1.380E-22
  52775.018     1.690E-22
  52775.083     1.627E-22
  52775.147     1.627E-22
  52775.212     2.314E-22
  52775.276     2.753E-22
  52775.340     2.375E-22
  52775.405     1.874E-22
  52775.469     1.499E-22
  52775.533     1.436E-22
  52775.598     1.250E-22
  52775.662     8.155E-23
  52775.727     5.681E-23
  52775.791     1.984E-23
  52775.855     5.053E-23
  52775.920     9.369E-23
  52775.984     6.274E-23
  52776.049     5.652E-23
  52776.113     1.341E-23
  52776.177     7.213E-24
  52776.242     4.403E-23
  52776.306     5.629E-23
  52776.370     7.039E-24
  52776.435    -5.417E-23
  52776.499    -9.074E-23
  52776.564    -1.090E-22
  52776.628    -1.454E-22
  52776.692    -7.268E-23
  52776.757    -5.446E-23
  52776.821    -6.670E-23
  52776.886    -1.093E-22
  52776.950    -1.517E-22
  52777.014    -1.638E-22
  52777.079    -9.734E-23
  52777.143     2.124E-25
  52777.208     2.470E-23
  52777.272     9.654E-26
  52777.336    -6.108E-23
  52777.401    -9.763E-23
  52777.465    -9.161E-23
  52777.530    -3.685E-23
  52777.594    -1.245E-23
  52777.658    -4.307E-23
  52777.723    -6.752E-23
  52777.787    -9.190E-23
  52777.851    -1.041E-22
  52777.916    -7.378E-23
  52777.980     1.173E-23
  52778.045     4.856E-23
  52778.109     6.083E-23
  52778.173     6.694E-23
  52778.238     1.763E-23
  52778.302    -4.975E-23
  52778.367    -8.027E-23
  52778.431    -9.855E-23
  52778.495    -9.254E-23
  52778.560    -9.867E-23
  52778.624    -6.224E-23
  52778.689    -1.955E-23
  52778.753    -1.961E-23
  52778.817     1.097E-23
  52778.882    -1.352E-24
  52778.946    -4.423E-23
  52779.011    -1.372E-23
  52779.075     1.688E-23
  52779.139     3.526E-23
  52779.204     2.291E-23
  52779.268    -2.007E-23
  52779.333    -2.013E-23
  52779.397    -2.631E-23
  52779.461    -2.025E-23
  52779.526    -3.864E-23
  52779.590    -6.920E-23
  52779.655    -9.965E-23
  52779.719    -6.931E-23
  52779.783    -3.277E-23
  52779.848     1.619E-23
  52779.912     9.989E-24
  52779.977    -1.459E-23
  52780.041    -8.523E-24
  52780.105     3.680E-24
  52780.170     4.049E-23
  52780.234     7.126E-23
  52780.299     5.270E-23
  52780.363     1.517E-22
  52780.427     2.392E-22
  52780.492     2.769E-22
  52780.556     2.642E-22
  52780.621     2.831E-22
  52780.685     2.830E-22
  52780.749     2.264E-22
  52780.814     1.327E-22
  52780.878     6.451E-23
  52780.943     7.063E-23
  52781.007     6.439E-23
  52781.071     6.434E-23
  52781.136     4.578E-23
  52781.200     8.830E-24
  52781.265     3.951E-23
  52781.329     7.646E-23
  52781.393     8.876E-23
  52781.458     7.016E-23
  52781.522     4.543E-23
  52781.587     2.691E-23
  52781.651     2.289E-24
  52781.715    -3.450E-23
  52781.780    -8.942E-23
  52781.844    -1.198E-22
  52781.909    -1.017E-22
  52781.973    -6.525E-23
  52782.037    -2.868E-23
  52782.102    -1.650E-23
  52782.166    -2.268E-23
  52782.231    -4.718E-23
  52782.295    -4.114E-23
  52782.359    -2.285E-23
  52782.424     3.846E-23
  52782.488     8.159E-23
  52782.553     1.125E-22
  52782.617     1.311E-22
  52782.681     9.998E-23
  52782.746     9.373E-23
  52782.810     6.277E-23
  52782.875     3.806E-23
  52782.939     2.570E-23
  52783.003     7.208E-24
  52783.068    -1.737E-23
  52783.132    -2.967E-23
  52783.197    -1.136E-23
  52783.261    -6.031E-23
  52783.326    -5.427E-23
  52783.390     7.244E-25
  52783.454    -1.772E-23
  52783.519     2.517E-23
  52783.583     9.917E-23
  52783.648     1.612E-22
  52783.712     1.924E-22
  52783.776     2.111E-22
  52783.841     2.424E-22
  52783.905     2.738E-22
  52783.970     2.675E-22
  52784.034     2.611E-22
  52784.098     2.737E-22
  52784.163     2.547E-22
  52784.227     1.794E-22
  52784.292     5.527E-23
  52784.356    -3.077E-23
  52784.420    -3.083E-23
  52784.485     1.201E-23
  52784.549     6.738E-23
  52784.614     1.417E-22
  52784.678     2.103E-22
  52784.743     1.915E-22
  52784.807     1.477E-22
  52784.871     1.166E-22
  52784.936     1.228E-22
  52785.000     7.933E-23
  52785.065     7.928E-23
  52785.129     7.922E-23
  52785.193     2.367E-23
  52785.258    -2.546E-23
  52785.322    -4.997E-23
  52785.387    -6.222E-23
  52785.451    -3.787E-23
  52785.516    -3.792E-23
  52785.580    -9.284E-23
  52785.644    -8.073E-23
  52785.709    -6.861E-23
  52785.773    -6.867E-23
  52785.838    -3.821E-23
  52785.902    -4.438E-23
  52785.966    -6.884E-23
  52786.031    -6.280E-23
  52786.095    -6.896E-23
  52786.160    -6.902E-23
  52786.224    -5.078E-23
  52786.288    -2.639E-23
  52786.353    -2.033E-23
  52786.417    -3.262E-23
  52786.482    -9.972E-23
  52786.546    -1.724E-22
  52786.611    -2.685E-22
  52786.675    -3.400E-22
  52786.739    -3.756E-22
  52786.804    -3.697E-22
  52786.868    -2.866E-22
  52786.933    -2.269E-22
  52786.997    -1.547E-22
  52787.062    -3.932E-23
  52787.126     4.655E-23
  52787.190     1.269E-22
  52787.255     2.017E-22
  52787.319     2.582E-22
  52787.384     3.086E-22
  52787.448     2.770E-22
  52787.512     2.203E-22
  52787.577     1.515E-22
  52787.641     8.933E-23
  52787.706    -3.159E-24
  52787.770    -7.656E-23
  52787.835    -3.390E-23
  52787.899     2.738E-23
  52787.963     5.197E-23
  52788.028    -9.581E-24
  52788.092    -5.246E-23
  52788.157    -5.252E-23
  52788.221    -6.478E-23
  52788.286    -5.263E-23
  52788.350    -5.269E-23
  52788.414    -3.442E-23
  52788.479    -2.836E-23
  52788.543    -1.617E-23
  52788.608     8.304E-24
  52788.672     3.284E-23
  52788.736     9.454E-23
  52788.801     1.193E-22
  52788.865     1.441E-22
  52788.930     1.627E-22
  52788.994     1.129E-22
  52789.059     6.332E-23
  52789.123     4.476E-23
  52789.187     2.007E-23
  52789.252     2.617E-23
  52789.316     3.842E-23
  52789.381     6.921E-23
  52789.445     1.498E-22
  52789.510     1.373E-22
  52789.574     1.310E-22
  52789.638     1.746E-22
  52789.703     2.560E-22
  52789.767     3.001E-22
  52789.832     3.699E-22
  52789.896     4.658E-22
  52789.961     5.756E-22
  52790.025     6.603E-22
  52790.089     7.458E-22
  52790.154     7.656E-22
  52790.218     8.253E-22
  52790.283     8.453E-22
  52790.347     8.787E-22
  52790.412     8.585E-22
  52790.476     7.786E-22
  52790.540     7.256E-22
  52790.605     7.256E-22
  52790.669     7.189E-22
  52790.734     7.188E-22
  52790.798     7.122E-22
  52790.863     7.319E-22
  52790.927     7.253E-22
  52790.991     7.186E-22
  52791.056     7.186E-22
  52791.120     6.593E-22
  52791.185     6.462E-22
  52791.249     6.265E-22
  52791.314     5.678E-22
  52791.378     5.743E-22
  52791.442     6.263E-22
  52791.507     6.459E-22
  52791.571     6.393E-22
  52791.636     5.481E-22
  52791.700     4.963E-22
  52791.765     4.512E-22
  52791.829     3.999E-22
  52791.893     3.616E-22
  52791.958     2.855E-22
  52792.022     2.162E-22
  52792.087     1.350E-22
  52792.151     1.101E-22
  52792.216     5.431E-23
  52792.280     4.191E-23
  52792.345     2.338E-23
  52792.409    -1.352E-23
  52792.473     2.327E-23
  52792.538     8.492E-23
  52792.602     1.532E-22
  52792.667     2.345E-22
  52792.731     2.031E-22
  52792.796     8.469E-23
  52792.860     4.756E-23
  52792.924    -1.399E-23
  52792.989    -3.854E-23
  52793.053    -7.319E-23
  52793.118    -6.840E-23
  52793.182    -8.161E-23
  52793.247    -1.113E-22
  52793.311    -1.473E-22
  52793.375    -1.898E-22
  52793.440    -1.709E-22
  52793.504    -1.218E-22
  52793.569    -9.752E-23
  52793.633    -7.866E-23
  52793.698    -8.219E-24
  52793.762     3.116E-23
  52793.827     2.308E-23
  52793.891     1.627E-23
  52793.955     2.647E-23
  52794.020     4.971E-23
  52794.084     6.914E-23
  52794.149     3.276E-23
  52794.213     1.989E-23
  52794.278    -4.382E-24
  52794.342    -5.214E-23
  52794.407    -1.499E-23
  52794.471     2.105E-23
  52794.535     4.574E-23
  52794.600     2.027E-23
  52794.664    -4.057E-23
  52794.729    -1.046E-22
  52794.793    -1.031E-22
  52794.858    -9.795E-24
  52794.922     3.307E-23
  52794.986     8.748E-23
  52795.051     1.166E-22
  52795.115     1.690E-22
  52795.180     1.706E-22
  52795.244     1.542E-22
  52795.309     1.147E-22
  52795.373     6.966E-23
  52795.438     5.259E-23
  52795.502     4.971E-23
  52795.566     4.057E-23
  52795.631    -3.107E-23
  52795.695    -1.276E-22
  52795.760    -1.645E-22
  52795.824    -1.529E-22
  52795.889    -1.034E-22
  52795.953    -2.847E-23
  52796.018     1.968E-23
  52796.082     2.973E-23
  52796.146     2.874E-23
  52796.211     4.095E-23
  52796.275    -7.528E-24
  52796.340    -6.926E-23
  52796.404    -1.177E-22
  52796.469    -1.471E-22
  52796.533    -1.242E-22
  52796.598    -8.786E-23
  52796.662    -3.150E-23
  52796.726    -1.718E-23
  52796.791     7.820E-24
  52796.855    -1.111E-23
  52796.920    -6.348E-23
  52796.984    -5.661E-23
  52797.049    -2.814E-24
  52797.113     2.734E-23
  52797.178     5.040E-23
  52797.242     6.871E-23
  52797.307     2.164E-23
  52797.371    -3.408E-23
  52797.435    -1.090E-23
  52797.500     2.451E-23
  52797.564     1.290E-22
  52797.629     2.363E-22
  52797.693     2.927E-22
  52797.758     2.641E-22
  52797.822     1.886E-22
  52797.887     1.523E-22
  52797.951     1.276E-22
  52798.015     7.125E-23
  52798.080    -2.468E-23
  52798.144    -1.300E-22
  52798.209    -9.833E-23
  52798.273    -6.619E-23
  52798.338    -2.671E-23
  52798.402     6.115E-23
  52798.467     8.177E-23
  52798.531     3.852E-23
  52798.596    -2.378E-23
  52798.660    -7.304E-23
  52798.724    -6.602E-23
  52798.789    -1.485E-23
  52798.853     3.552E-23
  52798.918     6.777E-23
  52798.982     4.360E-23
  52799.047     1.692E-23
  52799.111    -6.463E-24
  52799.176    -1.757E-23
  52799.240     1.205E-23
  52799.305     2.304E-23
  52799.369     6.808E-23
  52799.433     3.355E-23
  52799.498     1.205E-23
  52799.562    -7.500E-24
  52799.627    -4.237E-23
  52799.691    -5.727E-24
  52799.756     3.769E-23
  52799.820     1.236E-22
  52799.885     1.986E-22
  52799.949     2.184E-22
  52800.014     2.168E-22
  52800.078     1.831E-22
  52800.142     9.303E-23
  52800.207     1.200E-23
  52800.271    -3.713E-23
  52800.336    -8.694E-23
  52800.400    -1.177E-22
  52800.465    -4.378E-23
  52800.529     7.593E-24
  52800.594     9.366E-23
  52800.658     1.348E-22
  52800.723     1.579E-22
  52800.787     1.929E-22
  52800.851     2.416E-22
  52800.916     2.724E-22
  52800.980     2.243E-22
  52801.045     1.269E-22
  52801.109     9.699E-23
  52801.174     7.351E-23
  52801.238     5.140E-23
  52801.303     6.703E-24
  52801.367    -3.904E-23
  52801.432    -3.407E-23
  52801.496     1.636E-24
  52801.561    -2.753E-23
  52801.625    -2.564E-23
  52801.689    -1.329E-23
  52801.754     3.584E-23
  52801.818     7.251E-23
  52801.883     5.923E-23
  52801.947     2.848E-23
  52802.012     1.512E-23
  52802.076    -7.351E-23
  52802.141    -1.121E-22
  52802.205    -9.240E-23
  52802.270    -1.094E-22
  52802.334    -1.207E-22
  52802.399    -1.072E-22
  52802.463    -1.068E-22
  52802.527    -3.362E-23
  52802.592     4.090E-23
  52802.656     9.129E-23
  52802.721     4.799E-23
  52802.785    -3.206E-23
  52802.850    -8.104E-23
  52802.914    -6.312E-23
  52802.979    -2.080E-23
  52803.043     4.099E-23
  52803.108     7.005E-23
  52803.172     7.267E-23
  52803.237     8.365E-23
  52803.301     7.663E-23
  52803.366     2.562E-23
  52803.430    -7.863E-23
  52803.494    -1.310E-22
  52803.559    -1.352E-22
  52803.623    -1.031E-22
  52803.688    -7.957E-23
  52803.752    -1.124E-22
  52803.817    -5.809E-23
  52803.881     4.141E-23
  52803.946     5.115E-23
  52804.010     4.874E-23
  52804.075     4.359E-23
  52804.139    -8.300E-24
  52804.204     2.826E-24
  52804.268     7.080E-23
  52804.333     9.934E-23
  52804.397     4.527E-23
  52804.462    -4.853E-24
  52804.526    -3.376E-23
  52804.590    -2.605E-23
  52804.655    -3.011E-23
  52804.719    -3.526E-23
  52804.784    -8.994E-23
  52804.848    -8.878E-23
  52804.913    -4.631E-23
  52804.977     2.587E-23
  52805.042     3.041E-23
  52805.106    -1.924E-23
  52805.171    -8.026E-23
  52805.235    -1.047E-22
  52805.300    -9.243E-23
  52805.364    -6.863E-24
  52805.429     6.200E-23
  52805.493     6.929E-23
  52805.558     9.681E-23
  52805.622     7.330E-23
  52805.686    -7.359E-24
  52805.751    -7.486E-23
  52805.815    -7.493E-23
  52805.880     2.166E-23
  52805.944     1.248E-22
  52806.009     1.412E-22
  52806.073     9.481E-23
  52806.138     4.918E-23
  52806.202     1.283E-23
  52806.267    -2.199E-23
  52806.331    -3.253E-23
  52806.396    -2.101E-23
  52806.460     5.026E-23
  52806.525     1.479E-22
  52806.589     1.897E-22
  52806.654     2.456E-22
  52806.718     2.405E-22
  52806.783     1.662E-22
  52806.847     7.254E-23
  52806.911     2.976E-23
  52806.976    -6.752E-24
  52807.040    -1.956E-23
  52807.105    -1.383E-23
  52807.169     6.029E-23
  52807.234     1.111E-22
  52807.298     1.295E-22
  52807.363     9.186E-23
  52807.427     3.524E-23
  52807.492     3.702E-24
  52807.556    -2.129E-23
  52807.621    -3.483E-24
  52807.685     2.876E-23
  52807.750     5.609E-23
  52807.814     7.544E-23
  52807.879     8.663E-23
  52807.943     7.961E-23
  52808.008     4.144E-23
  52808.072     1.107E-23
  52808.137    -6.882E-24
  52808.201    -7.294E-23
  52808.266    -7.931E-23
  52808.330    -7.522E-23
  52808.395    -7.682E-23
  52808.459    -8.449E-23
  52808.523    -8.593E-23
  52808.588    -3.091E-23
  52808.652    -1.007E-23
  52808.717     4.006E-23
  52808.781     8.851E-23
  52808.846     7.597E-23
  52808.910     8.390E-23
  52808.975     8.464E-23
  52809.039     7.415E-23
  52809.104     5.686E-23
  52809.168     1.474E-23
  52809.233    -2.713E-23
  52809.297    -2.056E-23
  52809.362    -4.585E-23
  52809.426    -4.051E-23
  52809.491    -1.588E-23
  52809.555     3.762E-23
  52809.620     1.262E-22
  52809.684     1.556E-22
  52809.749     1.878E-22
  52809.813     1.962E-22
  52809.878     1.669E-22
  52809.942     9.304E-23
  52810.007    -1.118E-23
  52810.071    -7.830E-23
  52810.136    -8.316E-23
  52810.200    -4.602E-23
  52810.265    -2.129E-23
  52810.329    -4.542E-23
  52810.394    -5.869E-23
  52810.458    -8.969E-23
  52810.522    -7.159E-23
  52810.587    -4.878E-23
  52810.651    -4.539E-23
  52810.716    -5.322E-23
  52810.780    -4.167E-23
  52810.845     1.339E-23
  52810.909    -1.088E-23
  52810.974    -5.775E-23
  52811.038    -5.456E-23
  52811.103     1.619E-23
  52811.167     6.152E-23
  52811.232     3.087E-23
  52811.296     2.371E-23
  52811.361     2.046E-23
  52811.425    -3.944E-23
  52811.490    -2.278E-23
  52811.554    -3.931E-24
  52811.619    -5.286E-23
  52811.683    -6.554E-23
  52811.748    -2.178E-23
  52811.812    -1.404E-23
  52811.877     6.931E-24
  52811.941     2.690E-23
  52812.006     5.042E-23
  52812.070     4.395E-23
  52812.135     6.886E-23
  52812.199     1.052E-22
  52812.264     9.648E-23
  52812.328     1.444E-22
  52812.393     1.253E-22
  52812.457     1.702E-22
  52812.522     1.966E-22
  52812.586     1.520E-22
  52812.651     8.753E-23
  52812.715     4.305E-23
  52812.780    -4.899E-24
  52812.844     3.125E-24
  52812.909    -2.086E-24
  52812.973    -3.144E-23
  52813.038    -8.532E-23
  52813.102    -8.580E-23
  52813.167    -7.982E-23
  52813.231    -4.263E-23
  52813.296     6.601E-24
  52813.360     4.849E-23
  52813.425     7.717E-23
  52813.489     8.680E-23
  52813.554     1.171E-22
  52813.618     9.924E-23
  52813.683     1.563E-22
  52813.747     1.739E-22
  52813.812     1.362E-22
  52813.876     1.198E-22
  52813.941     9.409E-23
  52814.005     4.524E-24
  52814.070    -2.271E-23
  52814.134    -6.552E-23
  52814.199    -6.865E-23
  52814.263    -4.870E-23
  52814.328    -7.488E-23
  52814.392    -9.496E-23
  52814.457    -1.140E-22
  52814.521    -9.649E-23
  52814.586    -5.324E-23
  52814.650    -4.576E-23
  52814.715    -5.629E-23
  52814.779    -4.227E-23
  52814.844    -4.599E-23
  52814.908    -9.140E-23
  52814.973    -1.432E-22
  52815.037    -1.429E-22
  52815.102    -7.697E-23
  52815.166    -2.878E-23
  52815.231     1.174E-22
  52815.295     2.092E-22
  52815.360     1.960E-22
  52815.424     1.585E-22
  52815.489     9.674E-23
  52815.553     3.485E-23
  52815.618     2.675E-24
  52815.682    -2.882E-23
  52815.747    -8.401E-23
  52815.811    -7.821E-23
  52815.876     8.360E-24
  52815.940     4.114E-23
  52816.005     1.893E-23
  52816.069    -2.898E-23
  52816.134    -4.296E-23
  52816.198    -5.194E-23
  52816.263    -6.017E-23
  52816.327    -3.616E-23
  52816.392    -4.180E-23
  52816.456    -2.136E-23
  52816.521    -6.209E-25
  52816.585    -2.415E-23
  52816.650    -1.921E-23
  52816.714     3.516E-23
  52816.779     7.172E-23
  52816.843     1.143E-22
  52816.908     1.319E-22
  52816.972     1.175E-22
  52817.037     6.519E-23
  52817.101     1.463E-24
  52817.166    -6.079E-23
  52817.230    -3.538E-23
  52817.295    -6.426E-23
  52817.359    -7.611E-23
  52817.424    -9.541E-23
  52817.488    -1.086E-22
  52817.553    -8.483E-23
  52817.617    -7.205E-23
  52817.682    -7.602E-23
  52817.746    -7.261E-23
  52817.811    -3.900E-23
  52817.875     1.796E-23
  52817.940     3.753E-23
  52818.004     4.210E-23
  52818.069     9.419E-23
  52818.133     9.173E-23
  52818.198     1.091E-22
  52818.262     1.639E-22
  52818.327     1.677E-22
  52818.391     1.586E-22
  52818.456     1.143E-22
  52818.520     1.095E-22
  52818.585     1.618E-22
  52818.649     1.955E-22
  52818.714     1.341E-22
  52818.778     3.535E-23
  52818.843    -8.779E-23
  52818.907    -1.430E-22
  52818.972    -7.535E-23
  52819.036    -1.181E-24
  52819.101    -1.684E-24
  52819.165    -4.580E-23
  52819.230    -1.014E-22
  52819.294    -8.873E-23
  52819.359    -3.981E-23
  52819.424     2.147E-24
  52819.488     5.710E-23
  52819.553     3.798E-23
  52819.617     2.448E-23
  52819.682     2.355E-23
  52819.746     3.498E-23
  52819.811     7.736E-23
  52819.875     1.198E-22
  52819.940     1.508E-22
  52820.004     1.899E-22
  52820.069     1.988E-22
  52820.133     2.061E-22
  52820.198     2.061E-22
  52820.262     1.870E-22
  52820.327     1.736E-22
  52820.391     1.489E-22
  52820.456     1.384E-22
  52820.520     5.311E-23
  52820.585     1.075E-23
  52820.649    -7.171E-24
  52820.714    -6.325E-23
  52820.778    -7.096E-23
  52820.843    -6.535E-23
  52820.907    -8.267E-23
  52820.972    -3.853E-23
  52821.036     1.734E-23
  52821.101     2.296E-23
  52821.165     3.435E-23
  52821.230     9.662E-23
  52821.294     1.154E-22
  52821.359     7.169E-23
  52821.423     7.230E-23
  52821.488     5.375E-23
  52821.553    -1.091E-24
  52821.617    -1.350E-25
  52821.682     1.263E-23
  52821.746     5.674E-23
  52821.811     9.282E-23
  52821.875     8.936E-23
  52821.940     1.154E-22
  52822.004     1.423E-22
  52822.069     2.155E-22
  52822.133     2.781E-22
  52822.198     2.345E-22
  52822.262     1.350E-22
  52822.327     4.241E-23
  52822.391    -4.400E-23
  52822.456    -6.903E-23
  52822.520    -3.689E-23
  52822.585    -1.662E-23
  52822.649    -2.856E-23
  52822.714    -7.728E-23
  52822.778    -1.066E-22
  52822.843    -1.162E-22
  52822.907    -4.648E-23
  52822.972     9.628E-24
  52823.037     4.525E-23
  52823.101     8.591E-23
  52823.166     1.204E-22
  52823.230     1.129E-22
  52823.295     8.166E-23
  52823.359    -4.249E-23
  52823.424    -1.588E-22
  52823.488    -2.368E-22
  52823.553    -2.582E-22
  52823.617    -1.456E-22
  52823.682    -6.980E-23
  52823.746    -1.501E-24
  52823.811     8.503E-23
  52823.875     1.537E-22
  52823.940     2.158E-22
  52824.004     2.524E-22
  52824.069     2.897E-22
  52824.133     2.945E-22
  52824.198     2.782E-22
  52824.263     2.057E-22
  52824.327     9.677E-23
  52824.392     1.331E-23
  52824.456     3.016E-23
  52824.521     1.283E-23
  52824.585    -3.440E-24
  52824.650    -3.838E-23
  52824.714    -1.032E-22
  52824.779    -1.559E-22
  52824.843    -1.927E-22
  52824.908    -1.286E-22
  52824.972    -7.585E-24
  52825.037     1.296E-22
  52825.101     2.374E-22
  52825.166     2.570E-22
  52825.230     1.700E-22
  52825.295     5.322E-23
  52825.359    -3.121E-23
  52825.424    -6.011E-23
  52825.489    -8.436E-23
  52825.553    -5.383E-23
  52825.618     1.374E-23
  52825.682     5.017E-23
  52825.747     1.043E-22
  52825.811     1.394E-22
  52825.876     1.204E-22
  52825.940     1.283E-22
  52826.005     1.104E-22
  52826.069     9.857E-24
  52826.134    -9.568E-23
  52826.198    -1.022E-22
  52826.263    -5.356E-23
  52826.327     1.418E-23
  52826.392     8.830E-23
  52826.457     1.201E-22
  52826.521     9.199E-23
  52826.586     1.146E-22
  52826.650     1.546E-22
  52826.715     1.796E-22
  52826.779     2.035E-22
  52826.844     2.385E-22
  52826.908     2.159E-22
  52826.973     2.320E-22
  52827.037     2.628E-22
  52827.102     2.629E-22
  52827.166     2.511E-22
  52827.231     2.080E-22
  52827.295     1.766E-22
  52827.360     1.690E-22
  52827.425     1.107E-22
  52827.489     1.086E-22
  52827.554     1.147E-22
  52827.618     5.462E-23
  52827.683     1.964E-23
  52827.747     5.269E-23
  52827.812     1.048E-22
  52827.876     1.570E-22
  52827.941     1.904E-22
  52828.005     2.605E-22
  52828.070     3.111E-22
  52828.134     4.119E-22
  52828.199     4.865E-22
  52828.264     5.606E-22
  52828.328     6.297E-22
  52828.393     6.349E-22
  52828.457     5.818E-22
  52828.522     5.366E-22
  52828.586     5.116E-22
  52828.651     4.933E-22
  52828.715     5.386E-22
  52828.780     6.027E-22
  52828.844     6.943E-22
  52828.909     7.939E-22
  52828.973     8.890E-22
  52829.038     9.714E-22
  52829.103     1.087E-21
  52829.167     1.233E-21
  52829.232     1.388E-21
  52829.296     1.574E-21
  52829.361     1.797E-21
  52829.425     2.002E-21
  52829.490     2.154E-21
  52829.554     2.324E-21
  52829.619     2.514E-21
  52829.683     2.699E-21
  52829.748     2.853E-21
  52829.813     2.969E-21
  52829.877     3.078E-21
  52829.942     3.139E-21
  52830.006     3.141E-21
  52830.071     3.074E-21
  52830.135     2.963E-21
  52830.200     2.876E-21
  52830.264     2.792E-21
  52830.329     2.614E-21
  52830.393     2.449E-21
  52830.458     2.258E-21
  52830.523     2.047E-21
  52830.587     1.869E-21
  52830.652     1.713E-21
  52830.716     1.638E-21
  52830.781     1.585E-21
  52830.845     1.540E-21
  52830.910     1.503E-21
  52830.974     1.409E-21
  52831.039     1.301E-21
  52831.103     1.189E-21
  52831.168     1.097E-21
  52831.233     9.918E-22
  52831.297     8.375E-22
  52831.362     6.687E-22
  52831.426     5.280E-22
  52831.491     4.678E-22
  52831.555     4.204E-22
  52831.620     4.579E-22
  52831.684     4.398E-22
  52831.749     4.038E-22
  52831.813     4.312E-22
  52831.878     4.631E-22
  52831.943     4.229E-22
  52832.007     4.212E-22
  52832.072     3.880E-22
  52832.136     3.760E-22
  52832.201     3.385E-22
  52832.265     3.269E-22
  52832.330     3.355E-22
  52832.394     3.380E-22
  52832.459     2.388E-22
  52832.524     1.765E-22
  52832.588     1.759E-22
  52832.653     1.993E-22
  52832.717     1.838E-22
  52832.782     2.071E-22
  52832.846     2.754E-22
  52832.911     2.804E-22
  52832.975     2.535E-22
  52833.040     2.100E-22
  52833.104     1.370E-22
  52833.169     1.639E-22
  52833.234     1.648E-22
  52833.298     1.711E-22
  52833.363     1.268E-22
  52833.427     5.745E-23
  52833.492     2.002E-23
  52833.556     1.372E-23
  52833.621     5.595E-23
  52833.685     1.160E-22
  52833.750     1.648E-22
  52833.815     1.419E-22
  52833.879     9.601E-23
  52833.944     6.673E-23
  52834.008     6.772E-23
  52834.073     4.312E-23
  52834.137    -5.190E-25
  52834.202     2.300E-23
  52834.266     2.133E-23
  52834.331     8.502E-24
  52834.396     5.132E-23
  52834.460     1.006E-22
  52834.525     1.268E-22
  52834.589     1.409E-22
  52834.654     9.795E-23
  52834.718     8.526E-23
  52834.783     7.772E-23
  52834.847     8.822E-23
  52834.912     1.062E-22
  52834.977     6.312E-23
  52835.041     8.845E-24
  52835.106    -8.043E-23
  52835.170    -8.944E-23
  52835.235    -3.207E-23
  52835.299     2.971E-23
  52835.364     9.465E-23
  52835.429     1.402E-22
  52835.493     1.689E-22
  52835.558     1.868E-22
  52835.622     1.921E-22
  52835.687     1.525E-22
  52835.751     1.282E-22
  52835.816     8.670E-23
  52835.880     4.292E-23
  52835.945    -9.244E-24
  52836.010    -4.306E-23
  52836.074    -4.454E-23
  52836.139    -7.466E-23
  52836.203    -9.848E-23
  52836.268    -9.213E-23
  52836.332    -5.003E-23
  52836.397    -7.821E-24
  52836.461     3.554E-23
  52836.526     3.666E-23
  52836.591     3.234E-23
  52836.655    -8.492E-24
  52836.720    -6.355E-23
  52836.784    -1.318E-22
  52836.849    -1.679E-22
  52836.913    -1.011E-22
  52836.978    -1.530E-23
  52837.043     7.809E-23
  52837.107     1.276E-22
  52837.172     1.281E-22
  52837.236     1.734E-22
  52837.301     1.745E-22
  52837.365     1.755E-22
  52837.430     1.764E-22
  52837.495     1.277E-22
  52837.559     4.777E-23
  52837.624     4.070E-23
  52837.688     5.584E-23
  52837.753     1.015E-22
  52837.817     1.555E-22
  52837.882     1.736E-22
  52837.946     1.867E-22
  52838.011     1.807E-22
  52838.076     2.316E-22
  52838.140     2.827E-22
  52838.205     2.942E-22
  52838.269     1.974E-22
  52838.334     8.952E-23
  52838.398     7.670E-23
  52838.463     3.889E-23
  52838.528     1.372E-23
  52838.592     1.932E-23
  52838.657     8.350E-24
  52838.721     2.869E-23
  52838.786     2.430E-23
  52838.850    -3.100E-23
  52838.915    -2.607E-23
  52838.980     1.112E-23
  52839.044     4.869E-23
  52839.109     6.747E-23
  52839.173     7.442E-23
  52839.238     9.347E-23
  52839.302     9.791E-23
  52839.367     9.751E-23
  52839.432     9.839E-23
  52839.496     3.620E-23
  52839.561    -3.251E-23
  52839.625    -2.066E-23
  52839.690     5.448E-24
  52839.754     3.176E-23
  52839.819     5.554E-23
  52839.884     5.260E-23
  52839.948     4.938E-23
  52840.013     2.296E-23
  52840.077     1.096E-23
  52840.142     3.169E-23
  52840.206     5.890E-23
  52840.271     8.622E-23
  52840.336     5.843E-23
  52840.400     6.129E-23
  52840.465     6.840E-23
  52840.529     6.051E-23
  52840.594     5.267E-23
  52840.658     2.635E-23
  52840.723     4.496E-23
  52840.788     1.016E-22
  52840.852     1.714E-22
  52840.917     1.290E-22
  52840.981     3.652E-23
  52841.046    -1.944E-23
  52841.110    -3.367E-23
  52841.175     1.288E-25
  52841.240     8.434E-23
  52841.304     1.451E-22
  52841.369     1.875E-22
  52841.433     2.124E-22
  52841.498     2.404E-22
  52841.563     2.368E-22
  52841.627     2.079E-22
  52841.692     1.784E-22
  52841.756     1.536E-22
  52841.821     1.017E-22
  52841.885     1.863E-23
  52841.950    -2.704E-23
  52842.015    -4.589E-23
  52842.079    -1.456E-23
  52842.144     4.926E-24
  52842.208     3.059E-23
  52842.273     8.658E-23
  52842.337     1.401E-22
  52842.402     1.546E-22
  52842.467     1.965E-22
  52842.531     2.345E-22
  52842.596     1.905E-22
  52842.660     1.475E-22
  52842.725     4.346E-23
  52842.790    -2.233E-23
  52842.854    -3.781E-23
  52842.919    -2.341E-23
  52842.983    -1.498E-23
  52843.048     1.129E-23
  52843.112    -1.066E-24
  52843.177    -1.935E-23
  52843.242    -2.050E-23
  52843.306     3.506E-23
  52843.371     6.654E-23
  52843.435     1.797E-23
  52843.500    -1.083E-23
  52843.564     9.625E-24
  52843.629     4.773E-23
  52843.694     1.332E-22
  52843.758     1.494E-22
  52843.823     1.599E-22
  52843.887     2.219E-22
  52843.952     2.472E-22
  52844.017     2.419E-22
  52844.081     2.609E-22
  52844.146     2.229E-22
  52844.210     1.463E-22
  52844.275     1.267E-22
  52844.340     1.267E-22
  52844.404     1.006E-22
  52844.469     7.973E-23
  52844.533     1.135E-22
  52844.598     1.239E-22
  52844.662     1.303E-22
  52844.727     1.315E-22
  52844.792     1.089E-22
  52844.856     9.322E-23
  52844.921     6.538E-23
  52844.985     4.581E-23
  52845.050     1.987E-23
  52845.115     7.175E-24
  52845.179    -3.815E-23
  52845.244    -5.255E-23
  52845.308    -1.232E-23
  52845.373    -8.050E-24
  52845.437    -2.685E-23
  52845.502    -5.115E-23
  52845.567    -8.659E-23
  52845.631    -1.033E-22
  52845.696    -1.155E-22
  52845.760    -4.966E-23
  52845.825     8.521E-23
  52845.890     1.346E-22
  52845.954     1.621E-22
  52846.019     1.834E-22
  52846.083     1.710E-22
  52846.148     1.641E-22
  52846.213     1.448E-22
  52846.277     1.318E-22
  52846.342     1.263E-22
  52846.406     5.865E-23
  52846.471     4.735E-23
  52846.536     4.193E-23
  52846.600    -5.313E-24
  52846.665    -3.223E-24
  52846.729     3.940E-23
  52846.794     7.694E-23
  52846.858     9.824E-23
  52846.923     9.916E-23
  52846.988     1.173E-22
  52847.052     8.156E-23
  52847.117     1.970E-23
  52847.181     1.476E-24
  52847.246     6.611E-23
  52847.311     7.639E-23
  52847.375     3.325E-23
  52847.440    -4.322E-23
  52847.504    -9.632E-23
  52847.569    -1.701E-22
  52847.634    -2.660E-22
  52847.698    -2.513E-22
  52847.763    -2.059E-22
  52847.827    -1.631E-22
  52847.892    -1.326E-22
  52847.957    -1.061E-22
  52848.021    -6.138E-23
  52848.086    -1.738E-23
  52848.150     5.536E-23
  52848.215     8.815E-23
  52848.280     5.370E-23
  52848.344     5.255E-23
  52848.409     2.799E-23
  52848.473     1.131E-23
  52848.538    -6.640E-24
  52848.603    -1.219E-22
  52848.667    -1.597E-22
  52848.732    -9.528E-23
  52848.796    -4.512E-23
  52848.861    -9.271E-24
  52848.926     3.256E-23
  52848.990     7.148E-23
  52849.055     1.112E-22
  52849.119     1.414E-22
  52849.184     9.061E-23
  52849.249     9.837E-23
  52849.313     1.187E-22
  52849.378     1.372E-22
  52849.442     1.432E-22
  52849.507     8.736E-23
  52849.572     3.942E-23
  52849.636    -1.042E-23
  52849.701    -7.918E-23
  52849.765    -9.314E-23
  52849.830    -1.561E-22
  52849.895    -1.345E-22
  52849.959    -5.718E-23
  52850.024    -8.779E-24
  52850.088     5.874E-24
  52850.153    -1.201E-23
  52850.218    -3.628E-23
  52850.282    -7.301E-23
  52850.347    -9.743E-23
  52850.411    -1.326E-22
  52850.476    -1.495E-22
  52850.541    -1.121E-22
  52850.605    -4.970E-23
  52850.670     5.696E-23
  52850.734     1.419E-22
  52850.799     1.381E-22
  52850.864     1.502E-22
  52850.928     1.969E-22
  52850.993     1.780E-22
  52851.057     1.657E-22
  52851.122     1.638E-22
  52851.187     1.901E-22
  52851.251     1.798E-22
  52851.316     1.898E-22
  52851.380     1.480E-22
  52851.445     1.311E-22
  52851.510     1.879E-22
  52851.574     2.628E-22
  52851.639     2.808E-22
  52851.703     2.477E-22
  52851.768     1.474E-22
  52851.833     1.055E-22
  52851.897     9.526E-23
  52851.962     3.848E-23
  52852.026     3.705E-23
  52852.091     8.214E-23
  52852.156     1.019E-22
  52852.220     1.024E-22
  52852.285     1.022E-22
  52852.350     1.193E-22
  52852.414     1.005E-22
  52852.479     9.242E-23
  52852.543     1.153E-22
  52852.608     1.453E-22
  52852.673     1.388E-22
  52852.737     1.278E-22
  52852.802     1.737E-22
  52852.866     2.135E-22
  52852.931     1.900E-22
  52852.996     1.971E-22
  52853.060     1.899E-22
  52853.125     1.888E-22
  52853.189     2.820E-22
  52853.254     3.681E-22
  52853.319     3.581E-22
  52853.383     3.451E-22
  52853.448     2.998E-22
  52853.513     2.125E-22
  52853.577     9.782E-23
  52853.642     5.086E-23
  52853.706     1.353E-23
  52853.771    -6.720E-24
  52853.836    -3.391E-23
  52853.900    -4.481E-24
  52853.965     5.190E-23
  52854.029     1.312E-22
  52854.094     1.468E-22
  52854.159     8.308E-23
  52854.223     8.294E-23
  52854.288     4.611E-23
  52854.352    -2.742E-24
  52854.417    -8.760E-23
  52854.482    -1.718E-22
  52854.546    -2.055E-22
  52854.611    -1.664E-22
  52854.676    -1.159E-22
  52854.740    -9.570E-23
  52854.805    -3.206E-23
  52854.869     7.785E-23
  52854.934     2.193E-22
  52854.999     2.909E-22
  52855.063     2.689E-22
  52855.128     2.238E-22
  52855.192     1.446E-22
  52855.257     4.836E-23
  52855.322    -3.744E-23
  52855.386    -3.113E-23
  52855.451    -2.540E-23
  52855.516     9.854E-24
  52855.580     8.955E-23
  52855.645     1.632E-22
  52855.709     2.134E-22
  52855.774     2.889E-22
  52855.839     2.890E-22
  52855.903     2.706E-22
  52855.968     2.696E-22
  52856.033     2.259E-22
  52856.097     1.950E-22
  52856.162     1.625E-22
  52856.226     1.317E-22
  52856.291     1.108E-22
  52856.356     8.991E-23
  52856.420     7.702E-23
  52856.485     8.995E-23
  52856.549     1.478E-22
  52856.614     1.809E-22
  52856.679     1.373E-22
  52856.743     5.504E-23
  52856.808    -2.716E-23
  52856.873    -6.708E-23
  52856.937    -5.904E-23
  52857.002    -1.203E-23
  52857.066     6.235E-23
  52857.131     3.455E-23
  52857.196     1.426E-24
  52857.260    -5.693E-23
  52857.325    -6.249E-23
  52857.390    -1.051E-23
  52857.454     2.342E-23
  52857.519     2.955E-23
  52857.583     7.033E-23
  52857.648     1.175E-22
  52857.713     1.628E-22
  52857.777     1.884E-22
  52857.842     1.987E-22
  52857.907     1.904E-22
  52857.971     2.360E-22
  52858.036     2.998E-22
  52858.100     2.813E-22
  52858.165     2.066E-22
  52858.230     1.444E-22
  52858.294     1.379E-22
  52858.359     1.220E-22
  52858.424     5.689E-23
  52858.488    -7.403E-24
  52858.553     1.040E-23
  52858.617     5.464E-23
  52858.682     8.802E-23
  52858.747     4.260E-23
  52858.811     1.469E-23
  52858.876     3.424E-23
  52858.941     6.458E-23
  52859.005     7.615E-23
  52859.070     1.002E-22
  52859.134     9.770E-23
  52859.199     9.629E-23
  52859.264     1.153E-22
  52859.328     1.609E-22
  52859.393     2.103E-22
  52859.458     2.258E-22
  52859.522     2.395E-22
  52859.587     2.363E-22
  52859.652     2.367E-22
  52859.716     2.556E-22
  52859.781     2.179E-22
  52859.845     2.339E-22
  52859.910     2.764E-22
  52859.975     3.010E-22
  52860.039     3.315E-22
  52860.104     2.853E-22
  52860.169     2.354E-22
  52860.233     1.854E-22
  52860.298     1.476E-22
  52860.362     1.545E-22
  52860.427     1.629E-22
  52860.492     2.078E-22
  52860.556     3.084E-22
  52860.621     3.585E-22
  52860.686     3.442E-22
  52860.750     3.109E-22
  52860.815     3.799E-22
  52860.880     4.580E-22
  52860.944     4.599E-22
  52861.009     4.733E-22
  52861.073     4.651E-22
  52861.138     4.896E-22
  52861.203     5.290E-22
  52861.267     5.405E-22
  52861.332     5.129E-22
  52861.397     5.080E-22
  52861.461     5.023E-22
  52861.526     4.902E-22
  52861.590     5.436E-22
  52861.655     6.167E-22
  52861.720     6.689E-22
  52861.784     7.148E-22
  52861.849     6.944E-22
  52861.914     6.988E-22
  52861.978     7.372E-22
  52862.043     8.498E-22
  52862.108     9.031E-22
  52862.172     9.225E-22
  52862.237     9.030E-22
  52862.301     8.099E-22
  52862.366     7.637E-22
  52862.431     7.698E-22
  52862.495     7.827E-22
  52862.560     8.898E-22
  52862.625     1.026E-21
  52862.689     1.215E-21
  52862.754     1.400E-21
  52862.819     1.491E-21
  52862.883     1.632E-21
  52862.948     1.837E-21
  52863.013     1.956E-21
  52863.077     2.073E-21
  52863.142     2.247E-21
  52863.206     2.575E-21
  52863.271     2.994E-21
  52863.336     3.376E-21
  52863.400     3.772E-21
  52863.465     4.268E-21
  52863.530     4.862E-21
  52863.594     5.428E-21
  52863.659     6.425E-21
  52863.724     7.058E-21
  52863.788     7.597E-21
  52863.853     8.128E-21
  52863.917     8.547E-21
  52863.982     8.803E-21
  52864.047     8.996E-21
  52864.111     9.186E-21
  52864.176     9.209E-21
  52864.241     9.165E-21
  52864.305     8.977E-21
  52864.370     8.594E-21
  52864.435     8.214E-21
  52864.499     7.849E-21
  52864.564     7.455E-21
  52864.629     7.011E-21
  52864.693     6.403E-21
  52864.758     5.901E-21
  52864.822     5.530E-21
  52864.887     5.140E-21
  52864.952     4.715E-21
  52865.016     4.338E-21
  52865.081     3.955E-21
  52865.146     3.622E-21
  52865.210     3.272E-21
  52865.275     2.991E-21
  52865.340     2.712E-21
  52865.404     2.473E-21
  52865.469     2.309E-21
  52865.534     2.188E-21
  52865.598     2.039E-21
  52865.663     1.941E-21
  52865.728     1.814E-21
  52865.792     1.659E-21
  52865.857     1.522E-21
  52865.921     1.387E-21
  52865.986     1.254E-21
  52866.051     1.131E-21
  52866.115     1.041E-21
  52866.180     9.965E-22
  52866.245     1.015E-21
  52866.309     1.022E-21
  52866.374     9.602E-22
  52866.439     9.262E-22
  52866.503     8.639E-22
  52866.568     7.483E-22
  52866.633     6.234E-22
  52866.697     5.601E-22
  52866.762     5.093E-22
  52866.827     5.165E-22
  52866.891     5.779E-22
  52866.956     6.567E-22
  52867.021     6.676E-22
  52867.085     6.193E-22
  52867.150     5.704E-22
  52867.214     5.105E-22
  52867.279     4.784E-22
  52867.344     4.156E-22
  52867.408     3.729E-22
  52867.473     3.606E-22
  52867.538     2.830E-22
  52867.602     2.235E-22
  52867.667     1.854E-22
  52867.732     1.684E-22
  52867.796     1.583E-22
  52867.861     1.670E-22
  52867.926     1.620E-22
  52867.990     1.812E-22
  52868.055     2.319E-22
  52868.120     2.452E-22
  52868.184     2.320E-22
  52868.249     2.367E-22
  52868.314     2.618E-22
  52868.378     2.937E-22
  52868.443     3.514E-22
  52868.508     3.393E-22
  52868.572     3.074E-22
  52868.637     2.814E-22
  52868.702     2.679E-22
  52868.766     2.587E-22
  52868.831     3.063E-22
  52868.895     3.744E-22
  52868.960     4.321E-22
  52869.025     4.070E-22
  52869.089     3.320E-22
  52869.154     2.762E-22
  52869.219     2.830E-22
  52869.283     2.773E-22
  52869.348     2.846E-22
  52869.413     3.356E-22
  52869.477     3.431E-22
  52869.542     3.437E-22
  52869.607     3.107E-22
  52869.671     2.885E-22
  52869.736     3.042E-22
  52869.801     3.080E-22
  52869.865     3.142E-22
  52869.930     3.289E-22
  52869.995     2.276E-22
  52870.059     1.329E-22
  52870.124     4.570E-23
  52870.189     8.077E-24
  52870.253     5.787E-23
  52870.318     8.374E-23
  52870.383     8.962E-23
  52870.447     6.420E-23
  52870.512     3.410E-23
  52870.577    -3.425E-23
  52870.641    -9.066E-23
  52870.706    -7.988E-23
  52870.771    -6.855E-23
  52870.835    -4.897E-23
  52870.900     8.340E-24
  52870.965     4.772E-23
  52871.029     1.184E-22
  52871.094     1.450E-22
  52871.159     1.127E-22
  52871.223     1.401E-22
  52871.288     1.757E-22
  52871.353     1.703E-22
  52871.417     1.412E-22
  52871.482     1.104E-22
  52871.547     7.175E-23
  52871.611     9.274E-24
  52871.676     6.587E-23
  52871.741     1.798E-22
  52871.805     2.373E-22
  52871.870     1.679E-22
  52871.935     8.528E-23
  52871.999     1.363E-22
  52872.064     2.454E-22
  52872.129     2.906E-22
  52872.193     3.350E-22
  52872.258     3.465E-22
  52872.323     3.586E-22
  52872.387     4.422E-22
  52872.452     4.804E-22
  52872.517     4.270E-22
  52872.581     3.496E-22
  52872.646     2.680E-22
  52872.711     2.008E-22
  52872.775     1.588E-22
  52872.840     1.394E-22
  52872.905     1.035E-22
  52872.969     7.927E-23
  52873.034     8.347E-23
  52873.099     7.889E-23
  52873.163     9.480E-23
  52873.228     1.041E-22
  52873.293     1.306E-22
  52873.357     1.676E-22
  52873.422     1.986E-22
  52873.487     2.325E-22
  52873.551     2.916E-22
  52873.616     3.878E-22
  52873.681     4.196E-22
  52873.745     4.130E-22
  52873.810     4.187E-22
  52873.875     4.215E-22
  52873.939     4.124E-22
  52874.004     3.789E-22
  52874.069     3.411E-22
  52874.133     2.790E-22
  52874.198     2.164E-22
  52874.263     1.537E-22
  52874.327     9.759E-23
  52874.392     8.455E-23
  52874.457     1.098E-22
  52874.521     1.482E-22
  52874.586     1.615E-22
  52874.651     1.988E-22
  52874.715     2.735E-22
  52874.780     2.983E-22
  52874.845     2.547E-22
  52874.909     2.305E-22
  52874.974     1.873E-22
  52875.039     1.541E-22
  52875.103     1.383E-22
  52875.168     2.002E-22
  52875.233     2.637E-22
  52875.297     2.455E-22
  52875.362     1.905E-22
  52875.427     2.040E-22
  52875.491     2.486E-22
  52875.556     2.805E-22
  52875.621     2.664E-22
  52875.685     2.593E-22
  52875.750     2.595E-22
  52875.815     2.786E-22
  52875.880     2.785E-22
  52875.944     2.536E-22
  52876.009     2.283E-22
  52876.074     2.402E-22
  52876.138     2.439E-22
  52876.203     2.098E-22
  52876.268     1.666E-22
  52876.332     1.515E-22
  52876.397     1.609E-22
  52876.462     9.178E-23
  52876.526    -3.005E-23
  52876.591    -7.739E-23
  52876.656    -7.373E-23
  52876.720    -7.271E-25
  52876.785     4.952E-23
  52876.850     5.029E-23
  52876.914     1.983E-23
  52876.979     1.961E-23
  52877.044     2.624E-23
  52877.108     5.248E-23
  52877.173     1.216E-22
  52877.238     1.275E-22
  52877.302     9.565E-23
  52877.367     3.811E-23
  52877.432    -3.787E-23
  52877.497    -8.673E-23
  52877.561    -9.653E-23
  52877.626    -7.535E-23
  52877.691    -6.150E-23
  52877.755    -5.405E-23
  52877.820    -5.189E-23
  52877.885    -2.578E-23
  52877.949     3.066E-23
  52878.014     1.237E-22
  52878.079     1.281E-22
  52878.143     1.078E-22
  52878.208     8.187E-23
  52878.273     8.191E-23
  52878.337     1.068E-22
  52878.402     3.896E-23
  52878.467    -2.261E-23
  52878.531    -4.252E-23
  52878.596    -3.850E-23
  52878.661    -4.829E-23
  52878.725    -8.209E-23
  52878.790    -9.550E-23
  52878.855    -1.077E-22
  52878.920    -9.462E-23
  52878.984    -3.231E-23
  52879.049     1.888E-23
  52879.114     6.481E-23
  52879.178     1.097E-22
  52879.243     1.360E-22
  52879.308     1.621E-22
  52879.372     1.941E-22
  52879.437     1.945E-22
  52879.502     2.441E-22
  52879.566     2.350E-22
  52879.631     2.014E-22
  52879.696     2.075E-22
  52879.760     1.826E-22
  52879.825     2.215E-22
  52879.890     1.773E-22
  52879.955     8.176E-23
  52880.019     3.080E-23
  52880.084     1.799E-23
  52880.149     5.397E-23
  52880.213     9.634E-23
  52880.278     1.166E-22
  52880.343     1.065E-22
  52880.407     1.246E-22
  52880.472     1.272E-22
  52880.537     1.369E-22
  52880.601     1.368E-22
  52880.666     1.014E-22
  52880.731     4.851E-23
  52880.796    -3.655E-23
  52880.860    -7.942E-23
  52880.925    -8.021E-23
  52880.990     5.023E-24
  52881.054     1.676E-22
  52881.119     2.814E-22
  52881.184     3.248E-22
  52881.248     2.917E-22
  52881.313     2.076E-22
  52881.378     1.315E-22
  52881.442     1.266E-22
  52881.507     2.108E-22
  52881.572     3.014E-22
  52881.637     3.130E-22
  52881.701     2.332E-22
  52881.766     1.672E-22
  52881.831     1.157E-22
  52881.895     7.507E-23
  52881.960     1.022E-22
  52882.025     9.841E-23
  52882.089     6.473E-23
  52882.154     7.771E-23
  52882.219     8.617E-23
  52882.283     9.995E-23
  52882.348     1.363E-22
  52882.413     1.790E-22
  52882.478     2.547E-22
  52882.542     2.990E-22
  52882.607     2.991E-22
  52882.672     3.307E-22
  52882.736     2.719E-22
  52882.801     2.323E-22
  52882.866     2.565E-22
  52882.930     2.618E-22
  52882.995     2.625E-22
  52883.060     2.331E-22
  52883.125     2.421E-22
  52883.189     2.389E-22
  52883.254     2.239E-22
  52883.319     2.219E-22
  52883.383     1.746E-22
  52883.448     1.630E-22
  52883.513     1.745E-22
  52883.577     1.919E-22
  52883.642     2.477E-22
  52883.707     3.625E-22
  52883.772     4.474E-22
  52883.836     4.684E-22
  52883.901     4.653E-22
  52883.966     3.775E-22
  52884.030     2.875E-22
  52884.095     2.286E-22
  52884.160     2.213E-22
  52884.224     2.534E-22
  52884.289     3.050E-22
  52884.354     3.300E-22
  52884.419     3.088E-22
  52884.483     2.940E-22
  52884.548     2.670E-22
  52884.613     2.472E-22
  52884.677     2.600E-22
  52884.742     2.732E-22
  52884.807     2.873E-22
  52884.871     3.091E-22
  52884.936     3.699E-22
  52885.001     4.377E-22
  52885.066     4.468E-22
  52885.130     4.215E-22
  52885.195     4.071E-22
  52885.260     3.516E-22
  52885.324     2.371E-22
  52885.389     2.572E-22
  52885.454     2.871E-22
  52885.518     3.639E-22
  52885.583     3.849E-22
  52885.648     3.244E-22
  52885.713     2.767E-22
  52885.777     3.037E-22
  52885.842     3.751E-22
  52885.907     4.140E-22
  52885.971     4.005E-22
  52886.036     3.608E-22
  52886.101     3.208E-22
  52886.166     2.682E-22
  52886.230     2.490E-22
  52886.295     2.678E-22
  52886.360     2.800E-22
  52886.424     2.372E-22
  52886.489     1.899E-22
  52886.554     1.741E-22
  52886.618     1.634E-22
  52886.683     1.503E-22
  52886.748     1.536E-22
  52886.813     2.203E-22
  52886.877     3.718E-22
  52886.942     4.755E-22
  52887.007     5.032E-22
  52887.071     4.775E-22
  52887.136     3.995E-22
  52887.201     4.177E-22
  52887.266     4.276E-22
  52887.330     4.447E-22
  52887.395     4.702E-22
  52887.460     4.709E-22
  52887.524     4.405E-22
  52887.589     4.306E-22
  52887.654     4.479E-22
  52887.719     4.332E-22
  52887.783     4.036E-22
  52887.848     3.386E-22
  52887.913     2.984E-22
  52887.977     2.722E-22
  52888.042     2.768E-22
  52888.107     3.768E-22
  52888.172     4.776E-22
  52888.236     4.873E-22
  52888.301     4.716E-22
  52888.366     4.570E-22
  52888.430     4.169E-22
  52888.495     3.905E-22
  52888.560     4.052E-22
  52888.625     3.884E-22
  52888.689     3.002E-22
  52888.754     2.431E-22
  52888.819     2.241E-22
  52888.883     1.929E-22
  52888.948     2.512E-22
  52889.013     3.159E-22
  52889.078     3.732E-22
  52889.142     4.554E-22
  52889.207     4.740E-22
  52889.272     4.813E-22
  52889.336     5.287E-22
  52889.401     5.884E-22
  52889.466     5.948E-22
  52889.531     5.892E-22
  52889.595     5.950E-22
  52889.660     6.048E-22
  52889.725     6.548E-22
  52889.789     6.658E-22
  52889.854     6.840E-22
  52889.919     7.101E-22
  52889.984     7.378E-22
  52890.048     7.130E-22
  52890.113     6.616E-22
  52890.178     6.611E-22
  52890.242     6.660E-22
  52890.307     7.319E-22
  52890.372     8.055E-22
  52890.437     8.052E-22
  52890.501     8.797E-22
  52890.566     9.692E-22
  52890.631     1.087E-21
  52890.695     1.170E-21
  52890.760     1.197E-21
  52890.825     1.189E-21
  52890.890     1.154E-21
  52890.954     1.169E-21
  52891.019     1.218E-21
  52891.084     1.279E-21
  52891.149     1.375E-21
  52891.213     1.503E-21
  52891.278     1.613E-21
  52891.343     1.655E-21
  52891.407     1.717E-21
  52891.472     1.784E-21
  52891.537     1.887E-21
  52891.602     2.043E-21
  52891.666     2.254E-21
  52891.731     2.498E-21
  52891.796     2.741E-21
  52891.860     2.931E-21
  52891.925     2.997E-21
  52891.990     3.088E-21
  52892.055     3.274E-21
  52892.119     3.535E-21
  52892.184     3.975E-21
  52892.249     4.495E-21
  52892.314     5.066E-21
  52892.378     5.667E-21
  52892.443     6.623E-21
  52892.508     7.513E-21
  52892.572     8.486E-21
  52892.637     9.544E-21
  52892.702     1.071E-20
  52892.767     1.204E-20
  52892.831     1.362E-20
  52892.896     1.518E-20
  52892.961     1.666E-20
  52893.026     1.816E-20
  52893.090     1.947E-20
  52893.155     2.063E-20
  52893.220     2.211E-20
  52893.284     2.273E-20
  52893.349     2.300E-20
  52893.414     2.300E-20
  52893.479     2.259E-20
  52893.543     2.206E-20
  52893.608     2.072E-20
  52893.673     1.949E-20
  52893.738     1.809E-20
  52893.802     1.665E-20
  52893.867     1.490E-20
  52893.932     1.368E-20
  52893.996     1.253E-20
  52894.061     1.100E-20
  52894.126     9.930E-21
  52894.191     8.988E-21
  52894.255     8.147E-21
  52894.320     7.350E-21
  52894.385     6.725E-21
  52894.450     6.148E-21
  52894.514     5.657E-21
  52894.579     5.345E-21
  52894.644     5.045E-21
  52894.708     4.665E-21
  52894.773     4.241E-21
  52894.838     3.852E-21
  52894.903     3.468E-21
  52894.967     3.150E-21
  52895.032     2.909E-21
  52895.097     2.720E-21
  52895.162     2.517E-21
  52895.226     2.319E-21
  52895.291     2.172E-21
  52895.356     2.095E-21
  52895.421     2.028E-21
  52895.485     1.954E-21
  52895.550     1.909E-21
  52895.615     1.849E-21
  52895.679     1.799E-21
  52895.744     1.801E-21
  52895.809     1.750E-21
  52895.874     1.681E-21
  52895.938     1.599E-21
  52896.003     1.467E-21
  52896.068     1.371E-21
  52896.133     1.299E-21
  52896.197     1.184E-21
  52896.262     1.087E-21
  52896.327     1.018E-21
  52896.392     9.653E-22
  52896.456     9.139E-22
  52896.521     8.465E-22
  52896.586     8.316E-22
  52896.651     7.836E-22
  52896.715     7.440E-22
  52896.780     7.460E-22
  52896.845     8.000E-22
  52896.909     7.644E-22
  52896.974     7.557E-22
  52897.039     7.678E-22
  52897.104     7.614E-22
  52897.168     7.829E-22
  52897.233     7.304E-22
  52897.298     6.584E-22
  52897.363     6.005E-22
  52897.427     6.073E-22
  52897.492     6.153E-22
  52897.557     6.099E-22
  52897.622     5.960E-22
  52897.686     5.746E-22
  52897.751     5.327E-22
  52897.816     5.489E-22
  52897.881     6.414E-22
  52897.945     6.769E-22
  52898.010     7.199E-22
  52898.075     7.410E-22
  52898.140     6.749E-22
  52898.204     6.475E-22
  52898.269     5.731E-22
  52898.334     5.315E-22
  52898.398     5.689E-22
  52898.463     6.017E-22
  52898.528     5.833E-22
  52898.593     5.382E-22
  52898.657     4.740E-22
  52898.722     4.416E-22
  52898.787     4.410E-22
  52898.852     4.984E-22
  52898.916     5.298E-22
  52898.981     5.085E-22
  52899.046     5.078E-22
  52899.111     4.751E-22
  52899.175     4.285E-22
  52899.240     3.900E-22
  52899.305     3.665E-22
  52899.370     3.735E-22
  52899.434     3.622E-22
  52899.499     4.274E-22
  52899.564     4.350E-22
  52899.629     3.703E-22
  52899.693     4.086E-22
  52899.758     3.814E-22
  52899.823     3.654E-22
  52899.888     3.365E-22
  52899.952     2.528E-22
  52900.017     2.730E-22
  52900.082     3.004E-22
  52900.147     3.425E-22
  52900.211     3.719E-22
  52900.276     3.156E-22
  52900.341     3.149E-22
  52900.406     3.702E-22
  52900.470     4.444E-22
  52900.535     5.195E-22
  52900.600     5.766E-22
  52900.665     5.632E-22
  52900.729     5.111E-22
  52900.794     4.530E-22
  52900.859     3.548E-22
  52900.924     2.646E-22
  52900.988     1.947E-22
  52901.053     1.828E-22
  52901.118     2.643E-22
  52901.183     3.406E-22
  52901.247     3.991E-22
  52901.312     3.871E-22
  52901.377     3.244E-22
  52901.442     2.795E-22
  52901.506     2.656E-22
  52901.571     2.972E-22
  52901.636     3.155E-22
  52901.701     3.471E-22
  52901.765     3.410E-22
  52901.830     3.083E-22
  52901.895     3.194E-22
  52901.960     3.690E-22
  52902.024     4.113E-22
  52902.089     4.273E-22
  52902.154     3.668E-22
  52902.219     3.215E-22
  52902.283     2.631E-22
  52902.348     2.030E-22
  52902.413     1.384E-22
  52902.478     1.567E-22
  52902.542     2.117E-22
  52902.607     2.845E-22
  52902.672     3.076E-22
  52902.737     3.570E-22
  52902.801     4.202E-22
  52902.866     4.128E-22
  52902.931     3.910E-22
  52902.996     3.681E-22
  52903.060     3.410E-22
  52903.125     3.288E-22
  52903.190     3.758E-22
  52903.255     3.784E-22
  52903.319     2.961E-22
  52903.384     2.699E-22
  52903.449     3.125E-22
  52903.514     3.250E-22
  52903.578     3.392E-22
  52903.643     3.538E-22
  52903.708     3.248E-22
  52903.773     3.279E-22
  52903.838     3.003E-22
  52903.902     2.661E-22
  52903.967     2.834E-22
  52904.032     3.053E-22
  52904.097     3.258E-22
  52904.161     3.448E-22
  52904.226     3.756E-22
  52904.291     4.399E-22
  52904.356     4.594E-22
  52904.420     4.396E-22
  52904.485     4.210E-22
  52904.550     4.286E-22
  52904.615     4.745E-22
  52904.679     5.215E-22
  52904.744     5.287E-22
  52904.809     4.622E-22
  52904.874     3.637E-22
  52904.938     3.196E-22
  52905.003     3.427E-22
  52905.068     4.166E-22
  52905.133     4.963E-22
  52905.197     4.782E-22
  52905.262     4.062E-22
  52905.327     3.598E-22
  52905.392     3.478E-22
  52905.457     2.920E-22
  52905.521     2.613E-22
  52905.586     3.259E-22
  52905.651     3.254E-22
  52905.716     4.144E-22
  52905.780     5.392E-22
  52905.845     5.607E-22
  52905.910     5.681E-22
  52905.975     5.655E-22
  52906.039     5.620E-22
  52906.104     5.902E-22
  52906.169     5.480E-22
  52906.234     4.571E-22
  52906.298     4.195E-22
  52906.363     4.267E-22
  52906.428     4.207E-22
  52906.493     4.341E-22
  52906.558     3.752E-22
  52906.622     2.956E-22
  52906.687     2.823E-22
  52906.752     2.576E-22
  52906.817     2.340E-22
  52906.881     2.167E-22
  52906.946     2.044E-22
  52907.011     1.908E-22
  52907.076     2.347E-22
  52907.140     3.176E-22
  52907.205     3.498E-22
  52907.270     3.575E-22
  52907.335     3.328E-22
  52907.400     2.879E-22
  52907.464     3.521E-22
  52907.529     3.859E-22
  52907.594     4.060E-22
  52907.659     4.185E-22
  52907.723     3.916E-22
  52907.788     3.078E-22
  52907.853     2.771E-22
  52907.918     2.773E-22
  52907.982     2.651E-22
  52908.047     2.988E-22
  52908.112     3.573E-22
  52908.177     3.759E-22
  52908.242     4.199E-22
  52908.306     5.027E-22
  52908.371     5.654E-22
  52908.436     6.098E-22
  52908.501     5.567E-22
  52908.565     5.187E-22
  52908.630     4.043E-22
  52908.695     3.092E-22
  52908.760     2.839E-22
  52908.824     3.032E-22
  52908.889     2.858E-22
  52908.954     3.078E-22
  52909.019     4.176E-22
  52909.084     4.744E-22
  52909.148     4.989E-22
  52909.213     5.031E-22
  52909.278     4.954E-22
  52909.343     5.348E-22
  52909.407     5.208E-22
  52909.472     5.065E-22
  52909.537     4.931E-22
  52909.602     4.914E-22
  52909.667     4.966E-22
  52909.731     4.648E-22
  52909.796     4.669E-22
  52909.861     4.456E-22
  52909.926     4.023E-22
  52909.990     3.964E-22
  52910.055     4.346E-22
  52910.120     4.989E-22
  52910.185     5.048E-22
  52910.250     5.298E-22
  52910.314     5.269E-22
  52910.379     5.382E-22
  52910.444     5.514E-22
  52910.509     6.048E-22
  52910.573     6.171E-22
  52910.638     6.214E-22
  52910.703     5.874E-22
  52910.768     5.142E-22
  52910.833     4.413E-22
  52910.897     4.426E-22
  52910.962     4.716E-22
  52911.027     5.190E-22
  52911.092     6.039E-22
  52911.156     6.441E-22
  52911.221     5.976E-22
  52911.286     5.125E-22
  52911.351     4.548E-22
  52911.416     4.433E-22
  52911.480     4.818E-22
  52911.545     5.079E-22
  52911.610     5.127E-22
  52911.675     5.224E-22
  52911.739     6.322E-22
  52911.804     7.165E-22
  52911.869     7.848E-22
  52911.934     8.403E-22
  52911.999     7.747E-22
  52912.063     6.692E-22
  52912.128     6.031E-22
  52912.193     5.492E-22
  52912.258     5.612E-22
  52912.322     6.389E-22
  52912.387     6.934E-22
  52912.452     7.429E-22
  52912.517     7.464E-22
  52912.582     7.622E-22
  52912.646     7.948E-22
  52912.711     7.870E-22
  52912.776     8.270E-22
  52912.841     9.213E-22
  52912.906     9.684E-22
  52912.970     1.003E-21
  52913.035     9.769E-22
  52913.100     9.647E-22
  52913.165     9.630E-22
  52913.229     9.960E-22
  52913.294     1.031E-21
  52913.359     1.099E-21
  52913.424     1.148E-21
  52913.489     1.147E-21
  52913.553     1.121E-21
  52913.618     1.100E-21
  52913.683     1.126E-21
  52913.748     1.201E-21
  52913.813     1.251E-21
  52913.877     1.265E-21
  52913.942     1.287E-21
  52914.007     1.309E-21
  52914.072     1.316E-21
  52914.136     1.339E-21
  52914.201     1.405E-21
  52914.266     1.448E-21
  52914.331     1.518E-21
  52914.396     1.676E-21
  52914.460     1.845E-21
  52914.525     1.996E-21
  52914.590     2.103E-21
  52914.655     2.171E-21
  52914.720     2.208E-21
  52914.784     2.265E-21
  52914.849     2.399E-21
  52914.914     2.590E-21
  52914.979     2.751E-21
  52915.044     2.865E-21
  52915.108     3.000E-21
  52915.173     3.141E-21
  52915.238     3.294E-21
  52915.303     3.460E-21
  52915.367     3.656E-21
  52915.432     3.889E-21
  52915.497     4.187E-21
  52915.562     4.456E-21
  52915.627     4.759E-21
  52915.691     5.144E-21
  52915.756     5.495E-21
  52915.821     5.767E-21
  52915.886     6.312E-21
  52915.951     6.762E-21
  52916.015     7.209E-21
  52916.080     7.866E-21
  52916.145     8.631E-21
  52916.210     9.417E-21
  52916.275     1.032E-20
  52916.339     1.127E-20
  52916.404     1.227E-20
  52916.469     1.355E-20
  52916.534     1.510E-20
  52916.599     1.694E-20
  52916.663     1.895E-20
  52916.728     2.158E-20
  52916.793     2.390E-20
  52916.858     2.634E-20
  52916.923     2.910E-20
  52916.987     3.209E-20
  52917.052     3.510E-20
  52917.117     3.801E-20
  52917.182     4.055E-20
  52917.247     4.284E-20
  52917.311     4.390E-20
  52917.376     4.427E-20
  52917.441     4.391E-20
  52917.506     4.178E-20
  52917.571     4.031E-20
  52917.635     3.832E-20
  52917.700     3.592E-20
  52917.765     3.346E-20
  52917.830     3.078E-20
  52917.894     2.808E-20
  52917.959     2.559E-20
  52918.024     2.355E-20
  52918.089     2.029E-20
  52918.154     1.841E-20
  52918.218     1.668E-20
  52918.283     1.441E-20
  52918.348     1.308E-20
  52918.413     1.182E-20
  52918.478     1.039E-20
  52918.542     9.490E-21
  52918.607     8.621E-21
  52918.672     7.950E-21
  52918.737     7.362E-21
  52918.802     6.873E-21
  52918.867     6.462E-21
  52918.931     6.125E-21
  52918.996     5.721E-21
  52919.061     5.303E-21
  52919.126     4.994E-21
  52919.191     4.730E-21
  52919.255     4.492E-21
  52919.320     4.263E-21
  52919.385     4.026E-21
  52919.450     3.760E-21
  52919.515     3.493E-21
  52919.579     3.274E-21
  52919.644     3.088E-21
  52919.709     2.869E-21
  52919.774     2.689E-21
  52919.839     2.521E-21
  52919.903     2.367E-21
  52919.968     2.319E-21
  52920.033     2.239E-21
  52920.098     2.215E-21
  52920.163     2.161E-21
  52920.227     1.990E-21
  52920.292     1.868E-21
  52920.357     1.747E-21
  52920.422     1.585E-21
  52920.487     1.557E-21
  52920.551     1.556E-21
  52920.616     1.518E-21
  52920.681     1.501E-21
  52920.746     1.420E-21
  52920.811     1.340E-21
  52920.875     1.324E-21
  52920.940     1.315E-21
  52921.005     1.290E-21
  52921.070     1.265E-21
  52921.135     1.241E-21
  52921.199     1.203E-21
  52921.264     1.171E-21
  52921.329     1.147E-21
  52921.394     1.095E-21
  52921.459     1.026E-21
  52921.524     9.849E-22
  52921.588     9.926E-22
  52921.653     1.015E-21
  52921.718     9.984E-22
  52921.783     9.788E-22
  52921.848     9.923E-22
  52921.912     9.635E-22
  52921.977     8.948E-22
  52922.042     8.544E-22
  52922.107     8.441E-22
  52922.172     8.076E-22
  52922.236     7.640E-22
  52922.301     7.266E-22
  52922.366     7.147E-22
  52922.431     7.559E-22
  52922.496     8.115E-22
  52922.561     8.090E-22
  52922.625     8.197E-22
  52922.690     8.382E-22
  52922.755     8.722E-22
  52922.820     8.354E-22
  52922.885     8.239E-22
  52922.949     8.648E-22
  52923.014     8.713E-22
  52923.079     8.580E-22
  52923.144     8.059E-22
  52923.209     7.604E-22
  52923.273     7.465E-22
  52923.338     6.954E-22
  52923.403     6.857E-22
  52923.468     7.076E-22
  52923.533     7.228E-22
  52923.598     7.043E-22
  52923.662     6.775E-22
  52923.727     6.565E-22
  52923.792     6.417E-22
  52923.857     6.214E-22
  52923.922     6.152E-22
  52923.986     6.173E-22
  52924.051     6.118E-22
  52924.116     5.635E-22
  52924.181     5.102E-22
  52924.246     4.570E-22
  52924.311     4.455E-22
  52924.375     4.379E-22
  52924.440     4.290E-22
  52924.505     4.190E-22
  52924.570     4.601E-22
  52924.635     5.107E-22
  52924.699     5.433E-22
  52924.764     6.108E-22
  52924.829     6.191E-22
  52924.894     6.660E-22
  52924.959     7.051E-22
  52925.024     6.484E-22
  52925.088     5.477E-22
  52925.153     4.556E-22
  52925.218     4.175E-22
  52925.283     3.920E-22
  52925.348     4.547E-22
  52925.412     5.648E-22
  52925.477     6.388E-22
  52925.542     6.421E-22
  52925.607     5.723E-22
  52925.672     6.113E-22
  52925.737     6.768E-22
  52925.801     6.894E-22
  52925.866     6.607E-22
  52925.931     5.796E-22
  52925.996     5.253E-22
  52926.061     5.783E-22
  52926.126     6.114E-22
  52926.190     6.496E-22
  52926.255     6.688E-22
  52926.320     6.768E-22
  52926.385     6.570E-22
  52926.450     6.157E-22
  52926.514     6.227E-22
  52926.579     7.046E-22
  52926.644     7.861E-22
  52926.709     8.322E-22
  52926.774     8.645E-22
  52926.839     8.789E-22
  52926.903     9.143E-22
  52926.968     9.212E-22
  52927.033     9.732E-22
  52927.098     1.031E-21
  52927.163     1.028E-21
  52927.228     9.911E-22
  52927.292     9.345E-22
  52927.357     9.435E-22
  52927.422     9.066E-22
  52927.487     8.618E-22
  52927.552     8.107E-22
  52927.616     7.974E-22
  52927.681     7.631E-22
  52927.746     7.152E-22
  52927.811     6.811E-22
  52927.876     6.670E-22
  52927.941     6.341E-22
  52928.005     6.088E-22
  52928.070     5.649E-22
  52928.135     5.522E-22
  52928.200     6.053E-22
  52928.265     6.247E-22
  52928.330     6.095E-22
  52928.394     6.347E-22
  52928.459     6.808E-22
  52928.524     6.944E-22
  52928.589     7.088E-22
  52928.654     7.241E-22
  52928.719     7.315E-22
  52928.783     7.705E-22
  52928.848     8.226E-22
  52928.913     8.416E-22
  52928.978     8.611E-22
  52929.043     8.770E-22
  52929.108     8.602E-22
  52929.172     7.535E-22
  52929.237     6.940E-22
  52929.302     6.208E-22
  52929.367     5.855E-22
  52929.432     6.297E-22
  52929.497     6.555E-22
  52929.561     7.429E-22
  52929.626     7.965E-22
  52929.691     8.372E-22
  52929.756     8.317E-22
  52929.821     8.260E-22
  52929.886     8.204E-22
  52929.950     8.790E-22
  52930.015     9.379E-22
  52930.080     9.038E-22
  52930.145     9.116E-22
  52930.210     9.062E-22
  52930.275     8.878E-22
  52930.339     9.291E-22
  52930.404     9.513E-22
  52930.469     1.002E-21
  52930.534     1.011E-21
  52930.599     1.004E-21
  52930.664     1.057E-21
  52930.728     1.096E-21
  52930.793     1.158E-21
  52930.858     1.131E-21
  52930.923     1.110E-21
  52930.988     1.109E-21
  52931.053     1.080E-21
  52931.117     1.071E-21
  52931.182     1.017E-21
  52931.247     9.635E-22
  52931.312     9.312E-22
  52931.377     9.405E-22
  52931.442     9.903E-22
  52931.506     1.059E-21
  52931.571     1.176E-21
  52931.636     1.188E-21
  52931.701     1.184E-21
  52931.766     1.148E-21
  52931.831     1.127E-21
  52931.896     1.107E-21
  52931.960     1.121E-21
  52932.025     1.133E-21
  52932.090     1.158E-21
  52932.155     1.163E-21
  52932.220     1.154E-21
  52932.285     1.155E-21
  52932.349     1.175E-21
  52932.414     1.228E-21
  52932.479     1.333E-21
  52932.544     1.406E-21
  52932.609     1.514E-21
  52932.674     1.708E-21
  52932.738     1.780E-21
  52932.803     1.786E-21
  52932.868     1.823E-21
  52932.933     1.824E-21
  52932.998     1.872E-21
  52933.063     1.929E-21
  52933.127     1.967E-21
  52933.192     2.050E-21
  52933.257     2.187E-21
  52933.322     2.343E-21
  52933.387     2.412E-21
  52933.452     2.484E-21
  52933.517     2.635E-21
  52933.581     2.788E-21
  52933.646     2.912E-21
  52933.711     3.048E-21
  52933.776     3.254E-21
  52933.841     3.446E-21
  52933.906     3.685E-21
  52933.970     3.991E-21
  52934.035     4.268E-21
  52934.100     4.478E-21
  52934.165     4.596E-21
  52934.230     4.709E-21
  52934.295     4.884E-21
  52934.360     5.101E-21
  52934.424     5.382E-21
  52934.489     6.057E-21
  52934.554     6.446E-21
  52934.619     6.840E-21
  52934.684     7.297E-21
  52934.749     7.710E-21
  52934.813     8.170E-21
  52934.878     8.796E-21
  52934.943     9.557E-21
  52935.008     1.028E-20
  52935.073     1.099E-20
  52935.138     1.187E-20
  52935.203     1.289E-20
  52935.267     1.395E-20
  52935.332     1.517E-20
  52935.397     1.676E-20
  52935.462     1.874E-20
  52935.527     2.095E-20
  52935.592     2.412E-20
  52935.657     2.731E-20
  52935.721     3.084E-20
  52935.786     3.467E-20
  52935.851     3.885E-20
  52935.916     4.339E-20
  52935.981     4.792E-20
  52936.046     5.236E-20
  52936.110     5.650E-20
  52936.175     6.043E-20
  52936.240     6.376E-20
  52936.305     6.621E-20
  52936.370     6.760E-20
  52936.435     6.738E-20
  52936.500     6.539E-20
  52936.564     6.227E-20
  52936.629     5.839E-20
  52936.694     5.451E-20
  52936.759     5.069E-20
  52936.824     4.676E-20
  52936.889     4.129E-20
  52936.954     3.800E-20
  52937.018     3.460E-20
  52937.083     3.118E-20
  52937.148     2.821E-20
  52937.213     2.562E-20
  52937.278     2.334E-20
  52937.343     2.063E-20
  52937.408     1.801E-20
  52937.472     1.637E-20
  52937.537     1.481E-20
  52937.602     1.376E-20
  52937.667     1.272E-20
  52937.732     1.189E-20
  52937.797     1.087E-20
  52937.862     1.015E-20
  52937.926     9.527E-21
  52937.991     9.102E-21
  52938.056     8.693E-21
  52938.121     8.276E-21
  52938.186     7.860E-21
  52938.251     7.515E-21
  52938.316     7.162E-21
  52938.380     6.751E-21
  52938.445     6.323E-21
  52938.510     5.834E-21
  52938.575     5.489E-21
  52938.640     5.119E-21
  52938.705     4.733E-21
  52938.770     4.455E-21
  52938.834     4.215E-21
  52938.899     3.976E-21
  52938.964     3.760E-21
  52939.029     3.601E-21
  52939.094     3.438E-21
  52939.159     3.274E-21
  52939.224     3.134E-21
  52939.288     3.056E-21
  52939.353     3.022E-21
  52939.418     2.922E-21
  52939.483     2.748E-21
  52939.548     2.557E-21
  52939.613     2.477E-21
  52939.678     2.456E-21
  52939.743     2.372E-21
  52939.807     2.225E-21
  52939.872     2.122E-21
  52939.937     2.096E-21
  52940.002     2.045E-21
  52940.067     2.020E-21
  52940.132     2.040E-21
  52940.197     1.928E-21
  52940.261     1.849E-21
  52940.326     1.835E-21
  52940.391     1.828E-21
  52940.456     1.851E-21
  52940.521     1.896E-21
  52940.586     1.901E-21
  52940.651     1.876E-21
  52940.715     1.826E-21
  52940.780     1.762E-21
  52940.845     1.669E-21
  52940.910     1.556E-21
  52940.975     1.443E-21
  52941.040     1.388E-21
  52941.105     1.376E-21
  52941.170     1.372E-21
  52941.234     1.397E-21
  52941.299     1.422E-21
  52941.364     1.468E-21
  52941.429     1.556E-21
  52941.494     1.587E-21
  52941.559     1.591E-21
  52941.624     1.536E-21
  52941.688     1.484E-21
  52941.753     1.396E-21
  52941.818     1.317E-21
  52941.883     1.303E-21
  52941.948     1.262E-21
  52942.013     1.235E-21
  52942.078     1.256E-21
  52942.143     1.340E-21
  52942.207     1.383E-21
  52942.272     1.381E-21
  52942.337     1.364E-21
  52942.402     1.329E-21
  52942.467     1.288E-21
  52942.532     1.226E-21
  52942.597     1.180E-21
  52942.662     1.226E-21
  52942.726     1.340E-21
  52942.791     1.475E-21
  52942.856     1.598E-21
  52942.921     1.654E-21
  52942.986     1.647E-21
  52943.051     1.580E-21
  52943.116     1.544E-21
  52943.180     1.525E-21
  52943.245     1.517E-21
  52943.310     1.502E-21
  52943.375     1.528E-21
  52943.440     1.510E-21
  52943.505     1.442E-21
  52943.570     1.334E-21
  52943.635     1.258E-21
  52943.699     1.175E-21
  52943.764     1.129E-21
  52943.829     1.074E-21
  52943.894     1.025E-21
  52943.959     1.047E-21
  52944.024     1.060E-21
  52944.089     1.093E-21
  52944.154     1.197E-21
  52944.218     1.268E-21
  52944.283     1.327E-21
  52944.348     1.329E-21
  52944.413     1.294E-21
  52944.478     1.309E-21
  52944.543     1.332E-21
  52944.608     1.382E-21
  52944.673     1.440E-21
  52944.737     1.418E-21
  52944.802     1.382E-21
  52944.867     1.389E-21
  52944.932     1.375E-21
  52944.997     1.383E-21
  52945.062     1.405E-21
  52945.127     1.470E-21
  52945.192     1.547E-21
  52945.257     1.615E-21
  52945.321     1.715E-21
  52945.386     1.766E-21
  52945.451     1.803E-21
  52945.516     1.811E-21
  52945.581     1.811E-21
  52945.646     1.854E-21
  52945.711     1.892E-21
  52945.776     1.967E-21
  52945.840     2.098E-21
  52945.905     2.178E-21
  52945.970     2.211E-21
  52946.035     2.244E-21
  52946.100     2.300E-21
  52946.165     2.366E-21
  52946.230     2.495E-21
  52946.295     2.591E-21
  52946.359     2.638E-21
  52946.424     2.759E-21
  52946.489     2.797E-21
  52946.554     2.785E-21
  52946.619     2.725E-21
  52946.684     2.707E-21
  52946.749     2.693E-21
  52946.814     2.710E-21
  52946.879     2.697E-21
  52946.943     2.733E-21
  52947.008     2.814E-21
  52947.073     2.929E-21
  52947.138     3.012E-21
  52947.203     3.115E-21
  52947.268     3.288E-21
  52947.333     3.471E-21
  52947.398     3.665E-21
  52947.462     3.832E-21
  52947.527     4.040E-21
  52947.592     4.253E-21
  52947.657     4.473E-21
  52947.722     4.672E-21
  52947.787     4.845E-21
  52947.852     5.049E-21
  52947.917     5.267E-21
  52947.982     5.544E-21
  52948.046     5.808E-21
  52948.111     6.046E-21
  52948.176     6.249E-21
  52948.241     6.595E-21
  52948.306     6.978E-21
  52948.371     7.359E-21
  52948.436     7.660E-21
  52948.501     7.956E-21
  52948.566     8.314E-21
  52948.630     8.754E-21
  52948.695     9.126E-21
  52948.760     9.513E-21
  52948.825     1.006E-20
  52948.890     1.077E-20
  52948.955     1.167E-20
  52949.020     1.287E-20
  52949.085     1.396E-20
  52949.150     1.521E-20
  52949.214     1.684E-20
  52949.279     1.850E-20
  52949.344     2.040E-20
  52949.409     2.285E-20
  52949.474     2.546E-20
  52949.539     2.848E-20
  52949.604     3.207E-20
  52949.669     3.592E-20
  52949.734     4.009E-20
  52949.798     4.652E-20
  52949.863     5.186E-20
  52949.928     5.733E-20
  52949.993     6.248E-20
  52950.058     6.721E-20
  52950.123     7.134E-20
  52950.188     7.403E-20
  52950.253     7.561E-20
  52950.318     7.600E-20
  52950.383     7.498E-20
  52950.447     7.277E-20
  52950.512     6.971E-20
  52950.577     6.593E-20
  52950.642     6.185E-20
  52950.707     5.762E-20
  52950.772     5.321E-20
  52950.837     4.880E-20
  52950.902     4.454E-20
  52950.967     3.964E-20
  52951.031     3.591E-20
  52951.096     3.249E-20
  52951.161     2.965E-20
  52951.226     2.709E-20
  52951.291     2.478E-20
  52951.356     2.263E-20
  52951.421     1.991E-20
  52951.486     1.850E-20
  52951.551     1.724E-20
  52951.616     1.596E-20
  52951.680     1.450E-20
  52951.745     1.364E-20
  52951.810     1.287E-20
  52951.875     1.239E-20
  52951.940     1.175E-20
  52952.005     1.114E-20
  52952.070     1.062E-20
  52952.135     1.010E-20
  52952.200     9.580E-21
  52952.265     9.030E-21
  52952.329     8.546E-21
  52952.394     8.081E-21
  52952.459     7.621E-21
  52952.524     7.183E-21
  52952.589     6.826E-21
  52952.654     6.447E-21
  52952.719     6.073E-21
  52952.784     5.675E-21
  52952.849     5.342E-21
  52952.914     5.030E-21
  52952.978     4.736E-21
  52953.043     4.520E-21
  52953.108     4.356E-21
  52953.173     4.157E-21
  52953.238     4.026E-21
  52953.303     3.821E-21
  52953.368     3.593E-21
  52953.433     3.421E-21
  52953.498     3.324E-21
  52953.563     3.246E-21
  52953.627     3.200E-21
  52953.692     3.112E-21
  52953.757     3.043E-21
  52953.822     2.975E-21
  52953.887     2.899E-21
  52953.952     2.799E-21
  52954.017     2.705E-21
  52954.082     2.621E-21
  52954.147     2.635E-21
  52954.212     2.725E-21
  52954.276     2.739E-21
  52954.341     2.736E-21
  52954.406     2.772E-21
  52954.471     2.798E-21
  52954.536     2.808E-21
  52954.601     2.788E-21
  52954.666     2.768E-21
  52954.731     2.764E-21
  52954.796     2.749E-21
  52954.861     2.700E-21
  52954.926     2.698E-21
  52954.990     2.695E-21
  52955.055     2.708E-21
  52955.120     2.765E-21
  52955.185     2.829E-21
  52955.250     2.849E-21
  52955.315     2.793E-21
  52955.380     2.755E-21
  52955.445     2.701E-21
  52955.510     2.688E-21
  52955.575     2.677E-21
  52955.640     2.744E-21
  52955.704     2.817E-21
  52955.769     2.911E-21
  52955.834     3.032E-21
  52955.899     3.138E-21
  52955.964     3.228E-21
  52956.029     3.409E-21
  52956.094     3.570E-21
  52956.159     3.698E-21
  52956.224     3.821E-21
  52956.289     3.919E-21
  52956.354     4.093E-21
  52956.418     4.277E-21
  52956.483     4.553E-21
  52956.548     4.866E-21
  52956.613     5.133E-21
  52956.678     5.448E-21
  52956.743     5.785E-21
  52956.808     6.079E-21
  52956.873     6.317E-21
  52956.938     6.470E-21
  52957.003     6.616E-21
  52957.068     6.751E-21
  52957.132     6.976E-21
  52957.197     7.274E-21
  52957.262     7.582E-21
  52957.327     7.881E-21
  52957.392     8.130E-21
  52957.457     8.341E-21
  52957.522     8.573E-21
  52957.587     8.867E-21
  52957.652     9.234E-21
  52957.717     9.635E-21
  52957.782     1.003E-20
  52957.847     1.053E-20
  52957.911     1.108E-20
  52957.976     1.236E-20
  52958.041     1.313E-20
  52958.106     1.399E-20
  52958.171     1.509E-20
  52958.236     1.672E-20
  52958.301     1.843E-20
  52958.366     2.086E-20
  52958.431     2.379E-20
  52958.496     2.635E-20
  52958.561     2.926E-20
  52958.626     3.256E-20
  52958.690     3.626E-20
  52958.755     4.031E-20
  52958.820     4.588E-20
  52958.885     4.944E-20
  52958.950     5.240E-20
  52959.015     5.446E-20
  52959.080     5.542E-20
  52959.145     5.515E-20
  52959.210     5.399E-20
  52959.275     5.158E-20
  52959.340     4.865E-20
  52959.405     4.576E-20
  52959.469     4.266E-20
  52959.534     3.918E-20
  52959.599     3.627E-20
  52959.664     3.337E-20
  52959.729     3.065E-20
  52959.794     2.831E-20
  52959.859     2.628E-20
  52959.924     2.432E-20
  52959.989     2.258E-20
  52960.054     2.070E-20
  52960.119     1.909E-20
  52960.184     1.809E-20
  52960.249     1.734E-20
  52960.313     1.674E-20
  52960.378     1.645E-20
  52960.443     1.620E-20
  52960.508     1.603E-20
  52960.573     1.589E-20
  52960.638     1.598E-20
  52960.703     1.613E-20
  52960.768     1.639E-20
  52960.833     1.648E-20
  52960.898     1.658E-20
  52960.963     1.679E-20
  52961.028     1.713E-20
  52961.093     1.747E-20
  52961.157     1.758E-20
  52961.222     1.751E-20
  52961.287     1.714E-20
  52961.352     1.673E-20
  52961.417     1.629E-20
  52961.482     1.553E-20
  52961.547     1.508E-20
  52961.612     1.457E-20
  52961.677     1.398E-20
  52961.742     1.345E-20
  52961.807     1.311E-20
  52961.872     1.300E-20
  52961.937     1.300E-20
  52962.002     1.305E-20
  52962.066     1.331E-20
  52962.131     1.375E-20
  52962.196     1.442E-20
  52962.261     1.535E-20
  52962.326     1.650E-20
  52962.391     1.757E-20
  52962.456     1.889E-20
  52962.521     2.044E-20
  52962.586     2.204E-20
  52962.651     2.373E-20
  52962.716     2.538E-20
  52962.781     2.670E-20
  52962.846     2.751E-20
  52962.911     2.756E-20
  52962.975     2.695E-20
  52963.040     2.608E-20
  52963.105     2.478E-20
  52963.170     2.318E-20
  52963.235     2.061E-20
  52963.300     1.827E-20
  52963.365     1.679E-20
  52963.430     1.494E-20
  52963.495     1.349E-20
  52963.560     1.212E-20
  52963.625     1.099E-20
  52963.690     9.973E-21
  52963.755     9.086E-21
  52963.820     8.310E-21
  52963.884     7.664E-21
  52963.949     7.156E-21
  52964.014     6.659E-21
  52964.079     6.211E-21
  52964.144     5.598E-21
  52964.209     5.350E-21
  52964.274     5.212E-21
  52964.339     5.172E-21
  52964.404     5.205E-21
  52964.469     5.260E-21
  52964.534     5.326E-21
  52964.599     5.404E-21
  52964.664     5.419E-21
  52964.729     5.400E-21
  52964.794     5.377E-21
  52964.858     5.310E-21
  52964.923     5.315E-21
  52964.988     5.396E-21
  52965.053     5.436E-21
  52965.118     5.423E-21
  52965.183     5.324E-21
  52965.248     5.103E-21
  52965.313     4.816E-21
  52965.378     4.588E-21
  52965.443     4.384E-21
  52965.508     4.139E-21
  52965.573     3.909E-21
  52965.638     3.710E-21
  52965.703     3.514E-21
  52965.768     3.260E-21
  52965.833     3.019E-21
  52965.897     2.841E-21
  52965.962     2.657E-21
  52966.027     2.432E-21
  52966.092     2.245E-21
  52966.157     2.147E-21
  52966.222     2.048E-21
  52966.287     1.886E-21
  52966.352     1.789E-21
  52966.417     1.723E-21
  52966.482     1.669E-21
  52966.547     1.636E-21
  52966.612     1.577E-21
  52966.677     1.519E-21
  52966.742     1.480E-21
  52966.807     1.447E-21
  52966.872     1.376E-21
  52966.937     1.268E-21
  52967.001     1.196E-21
  52967.066     1.159E-21
  52967.131     1.223E-21
  52967.196     1.210E-21
  52967.261     1.190E-21
  52967.326     1.120E-21
  52967.391     1.035E-21
  52967.456     1.063E-21
  52967.521     1.112E-21
  52967.586     1.070E-21
  52967.651     1.008E-21
  52967.716     9.452E-22
  52967.781     9.106E-22
  52967.846     8.834E-22
  52967.911     8.483E-22
  52967.976     8.948E-22
  52968.041     9.561E-22
  52968.106     9.549E-22
  52968.170     9.789E-22
  52968.235     9.724E-22
  52968.300     9.179E-22
  52968.365     8.853E-22
  52968.430     8.142E-22
  52968.495     7.059E-22
  52968.560     5.931E-22
  52968.625     4.999E-22
  52968.690     4.850E-22
  52968.755     4.765E-22
  52968.820     4.932E-22
  52968.885     5.625E-22
  52968.950     5.591E-22
  52969.015     5.225E-22
  52969.080     5.127E-22
  52969.145     5.215E-22
  52969.210     5.749E-22
  52969.275     7.035E-22
  52969.340     8.009E-22
  52969.404     8.356E-22
  52969.469     8.474E-22
  52969.534     7.743E-22
  52969.599     6.889E-22
  52969.664     6.123E-22
  52969.729     5.758E-22
  52969.794     6.231E-22
  52969.859     6.182E-22
  52969.924     6.282E-22
  52969.989     6.574E-22
  52970.054     6.043E-22
  52970.119     5.589E-22
  52970.184     5.773E-22
  52970.249     5.556E-22
  52970.314     5.567E-22
  52970.379     6.081E-22
  52970.444     5.839E-22
  52970.509     5.358E-22
  52970.574     4.544E-22
  52970.639     4.081E-22
  52970.703     4.074E-22
  52970.768     4.527E-22
  52970.833     5.647E-22
  52970.898     6.733E-22
  52970.963     7.442E-22
  52971.028     7.079E-22
  52971.093     5.874E-22
  52971.158     5.194E-22
  52971.223     5.139E-22
  52971.288     5.264E-22
  52971.353     5.821E-22
  52971.418     6.068E-22
  52971.483     6.035E-22
  52971.548     5.967E-22
  52971.613     6.409E-22
  52971.678     6.846E-22
  52971.743     7.020E-22
  52971.808     6.817E-22
  52971.873     6.640E-22
  52971.938     5.889E-22
  52972.003     5.337E-22
  52972.068     5.394E-22
  52972.132     5.326E-22
  52972.197     4.396E-22
  52972.262     4.083E-22
  52972.327     3.760E-22
  52972.392     3.929E-22
  52972.457     4.489E-22
  52972.522     4.528E-22
  52972.587     4.501E-22
  52972.652     4.988E-22
  52972.717     4.615E-22
  52972.782     4.175E-22
  52972.847     4.337E-22
  52972.912     4.282E-22
  52972.977     4.165E-22
  52973.042     4.330E-22
  52973.107     4.765E-22
  52973.172     4.921E-22
  52973.237     5.114E-22
  52973.302     5.289E-22
  52973.367     5.603E-22
  52973.432     6.086E-22
  52973.497     6.191E-22
  52973.562     5.482E-22
  52973.627     4.686E-22
  52973.692     4.148E-22
  52973.756     4.406E-22
  52973.821     5.458E-22
  52973.886     5.589E-22
  52973.951     5.257E-22
  52974.016     5.252E-22
  52974.081     5.129E-22
  52974.146     5.404E-22
  52974.211     5.734E-22
  52974.276     5.791E-22
  52974.341     5.859E-22
  52974.406     6.559E-22
  52974.471     7.656E-22
  52974.536     8.766E-22
  52974.601     9.198E-22
  52974.666     8.514E-22
  52974.731     8.429E-22
  52974.796     8.851E-22
  52974.861     8.383E-22
  52974.926     8.234E-22
  52974.991     7.629E-22
  52975.056     7.053E-22
  52975.121     6.489E-22
  52975.186     6.239E-22
  52975.251     6.042E-22
  52975.316     5.299E-22
  52975.381     4.841E-22
  52975.446     4.986E-22
  52975.511     5.124E-22
  52975.575     4.928E-22
  52975.640     4.213E-22
  52975.705     4.353E-22
  52975.770     4.730E-22
  52975.835     4.917E-22
  52975.900     4.586E-22
  52975.965     4.252E-22
  52976.030     3.888E-22
  52976.095     3.398E-22
  52976.160     3.345E-22
  52976.225     3.484E-22
  52976.290     3.348E-22
  52976.355     3.321E-22
  52976.420     3.294E-22
  52976.485     3.402E-22
  52976.550     3.593E-22
  52976.615     3.582E-22
  52976.680     3.266E-22
  52976.745     3.039E-22
  52976.810     3.335E-22
  52976.875     3.667E-22
  52976.940     4.254E-22
  52977.005     4.665E-22
  52977.070     4.302E-22
  52977.135     3.850E-22
  52977.200     3.892E-22
  52977.265     3.842E-22
  52977.330     2.820E-22
  52977.395     2.550E-22
  52977.460     2.556E-22
  52977.525     2.505E-22
  52977.590     2.004E-22
  52977.655     1.700E-22
  52977.719     1.915E-22
  52977.784     1.543E-22
  52977.849     1.232E-22
  52977.914     1.170E-22
  52977.979     1.545E-22
  52978.044     2.244E-22
  52978.109     3.019E-22
  52978.174     3.276E-22
  52978.239     2.990E-22
  52978.304     2.832E-22
  52978.369     2.555E-22
  52978.434     3.377E-22
  52978.499     3.635E-22
  52978.564     3.702E-22
  52978.629     3.263E-22
  52978.694     3.025E-22
  52978.759     3.228E-22
  52978.824     3.486E-22
  52978.889     3.160E-22
  52978.954     3.098E-22
  52979.019     3.415E-22
  52979.084     3.215E-22
  52979.149     2.630E-22
  52979.214     1.989E-22
  52979.279     1.152E-22
  52979.344     8.165E-23
  52979.409     1.300E-22
  52979.474     1.485E-22
  52979.539     1.309E-22
  52979.604     1.455E-22
  52979.669     1.851E-22
  52979.734     1.848E-22
  52979.799     2.222E-22
  52979.864     2.649E-22
  52979.929     2.563E-22
  52979.994     2.800E-22
  52980.059     3.043E-22
  52980.124     3.174E-22
  52980.189     3.111E-22
  52980.254     2.619E-22
  52980.319     2.521E-22
  52980.384     1.762E-22
  52980.449     1.335E-22
  52980.514     8.901E-23
  52980.578     7.343E-23
  52980.643     1.088E-22
  52980.708     2.211E-22
  52980.773     2.702E-22
  52980.838     2.499E-22
  52980.903     2.229E-22
  52980.968     1.755E-22
  52981.033     2.000E-22
  52981.098     2.887E-22
  52981.163     3.385E-22
  52981.228     3.561E-22
  52981.293     3.612E-22
  52981.358     3.275E-22
  52981.423     2.763E-22
  52981.488     2.256E-22
  52981.553     1.656E-22
  52981.618     1.046E-22
  52981.683     1.181E-22
  52981.748     1.781E-22
  52981.813     2.200E-22
  52981.878     2.764E-22
  52981.943     3.280E-22
  52982.008     3.614E-22
  52982.073     3.283E-22
  52982.138     2.808E-22
  52982.203     2.528E-22
  52982.268     2.943E-22
  52982.333     3.816E-22
  52982.398     4.362E-22
  52982.463     5.018E-22
  52982.528     6.231E-22
  52982.593     7.130E-22
  52982.658     7.432E-22
  52982.723     7.342E-22
  52982.788     7.118E-22
  52982.853     6.271E-22
  52982.918     6.156E-22
  52982.983     5.674E-22
  52983.048     5.437E-22
  52983.113     5.512E-22
  52983.178     5.446E-22
  52983.243     5.407E-22
  52983.308     5.416E-22
  52983.373     4.900E-22
  52983.438     3.546E-22
  52983.503     2.249E-22
  52983.568     1.538E-22
  52983.633     1.460E-22
  52983.698     1.412E-22
  52983.763     1.035E-22
  52983.828     4.108E-23
  52983.893     4.377E-24
  52983.958     7.327E-23
  52984.023     1.850E-22
  52984.088     1.922E-22
  52984.153     1.713E-22
  52984.218     1.483E-22
  52984.283     1.431E-22
  52984.348     2.198E-22
  52984.413     3.160E-22
  52984.478     3.570E-22
  52984.543     4.014E-22
  52984.608     3.766E-22
  52984.673     4.093E-22
  52984.738     4.633E-22
  52984.803     4.746E-22
  52984.868     5.016E-22
  52984.933     4.496E-22
  52984.998     4.300E-22
  52985.063     3.946E-22
  52985.128     2.716E-22
  52985.193     1.392E-22
  52985.258     1.418E-22
  52985.323     1.713E-22
  52985.388     2.134E-22
  52985.453     2.611E-22
  52985.518     2.862E-22
  52985.583     3.311E-22
  52985.648     2.960E-22
  52985.713     2.418E-22
  52985.778     1.667E-22
  52985.843     1.414E-22
  52985.908     2.011E-22
  52985.973     2.656E-22
  52986.038     2.926E-22
  52986.103     2.771E-22
  52986.168     2.543E-22
  52986.233     1.941E-22
  52986.298     1.464E-22
  52986.363     1.674E-22
  52986.428     1.870E-22
  52986.493     2.201E-22
  52986.558     2.358E-22
  52986.623     1.824E-22
  52986.688     1.286E-22
  52986.753     8.133E-23
  52986.818     5.931E-23
  52986.883     5.536E-23
  52986.948     9.559E-23
  52987.013     1.917E-22
  52987.078     2.614E-22
  52987.143     2.501E-22
  52987.208     2.200E-22
  52987.273     2.270E-22
  52987.338     2.670E-22
  52987.403     2.930E-22
  52987.468     3.566E-22
  52987.533     3.945E-22
  52987.598     4.015E-22
  52987.663     4.155E-22
  52987.728     3.886E-22
  52987.793     3.949E-22
  52987.858     3.961E-22
  52987.923     3.558E-22
  52987.988     3.026E-22
  52988.053     2.703E-22
  52988.118     2.538E-22
  52988.183     2.294E-22
  52988.248     2.425E-22
  52988.313     2.499E-22
  52988.378     2.622E-22
  52988.443     3.264E-22
  52988.508     3.325E-22
  52988.573     3.383E-22
  52988.638     4.016E-22
  52988.703     4.460E-22
  52988.768     5.047E-22
  52988.833     5.591E-22
  52988.898     5.695E-22
  52988.963     5.001E-22
  52989.028     4.491E-22
  52989.093     4.569E-22
  52989.158     4.481E-22
  52989.223     4.389E-22
  52989.288     4.284E-22
  52989.353     4.313E-22
  52989.418     4.700E-22
  52989.483     4.606E-22
  52989.548     4.190E-22
  52989.613     3.520E-22
  52989.678     2.831E-22
  52989.743     2.127E-22
  52989.808     1.974E-22
  52989.873     2.462E-22
  52989.938     3.232E-22
  52990.003     3.490E-22
  52990.068     3.355E-22
  52990.133     3.499E-22
  52990.198     3.387E-22
  52990.263     3.528E-22
  52990.328     3.097E-22
  52990.393     2.354E-22
  52990.458     1.659E-22
  52990.523     1.404E-22
  52990.588     1.971E-22
  52990.653     2.485E-22
  52990.718     2.737E-22
  52990.783     3.179E-22
  52990.848     3.374E-22
  52990.913     3.689E-22
  52990.978     3.305E-22
  52991.043     3.240E-22
  52991.108     2.968E-22
  52991.173     2.499E-22
  52991.238     2.692E-22
  52991.303     2.890E-22
  52991.368     3.469E-22
  52991.433     3.344E-22
  52991.498     3.003E-22
  52991.563     2.853E-22
  52991.628     2.517E-22
  52991.693     1.994E-22
  52991.758     1.559E-22
  52991.823     1.507E-22
  52991.888     1.961E-22
  52991.953     2.567E-22
  52992.018     3.222E-22
  52992.083     3.610E-22
  52992.148     3.136E-22
  52992.213     2.647E-22
  52992.278     2.882E-22
  52992.343     3.248E-22
  52992.408     3.620E-22
  52992.473     3.855E-22
  52992.538     4.078E-22
  52992.603     3.819E-22
  52992.668     3.536E-22
  52992.733     3.502E-22
  52992.798     3.313E-22
  52992.863     3.436E-22
  52992.928     2.947E-22
  52992.993     2.462E-22
  52993.058     2.825E-22
  52993.123     2.432E-22
  52993.188     1.578E-22
  52993.253     1.731E-22
  52993.318     1.833E-22
  52993.384     1.811E-22
  52993.449     1.968E-22
  52993.514     2.277E-22
  52993.579     3.072E-22
  52993.644     4.382E-22
  52993.709     4.845E-22
  52993.774     4.757E-22
  52993.839     4.192E-22
  52993.904     3.456E-22
  52993.969     3.029E-22
  52994.034     3.430E-22
  52994.099     4.839E-22
  52994.164     5.941E-22
  52994.229     6.900E-22
  52994.294     7.327E-22
  52994.359     6.208E-22
  52994.424     5.075E-22
  52994.489     4.448E-22
  52994.554     4.541E-22
  52994.619     4.771E-22
  52994.684     4.822E-22
  52994.749     4.418E-22
  52994.814     4.109E-22
  52994.879     4.263E-22
  52994.944     3.916E-22
  52995.009     3.677E-22
  52995.074     3.700E-22
  52995.139     3.422E-22
  52995.204     2.863E-22
  52995.269     2.685E-22
  52995.334     2.076E-22
  52995.399     1.740E-22
  52995.464     1.585E-22
  52995.529     9.865E-23
  52995.594     9.860E-23
  52995.659     8.562E-23
  52995.724     7.836E-23
  52995.789     8.648E-23
  52995.854     1.244E-22
  52995.919     1.583E-22
  52995.984     2.309E-22
  52996.049     2.741E-22
  52996.114     2.778E-22
  52996.179     2.098E-22
  52996.245     1.052E-22
  52996.310     4.587E-23
  52996.375     9.727E-23
  52996.440     2.042E-22
  52996.505     2.809E-22
  52996.570     3.946E-22
  52996.635     5.129E-22
  52996.700     6.182E-22
  52996.765     7.625E-22
  52996.830     8.158E-22
  52996.895     7.169E-22
  52996.960     5.868E-22
  52997.025     5.181E-22
  52997.090     4.567E-22
  52997.155     4.491E-22
  52997.220     4.871E-22
  52997.285     4.908E-22
  52997.350     4.521E-22
  52997.415     4.452E-22
  52997.480     4.189E-22
  52997.545     3.771E-22
  52997.610     3.868E-22
  52997.675     4.195E-22
  52997.740     4.196E-22
  52997.805     3.974E-22
  52997.870     4.019E-22
  52997.935     4.177E-22
  52998.000     4.426E-22
  52998.065     5.214E-22
  52998.130     5.107E-22
  52998.195     4.624E-22
  52998.260     4.324E-22
  52998.325     4.080E-22
  52998.391     3.822E-22
  52998.456     4.276E-22
  52998.521     4.713E-22
  52998.586     4.818E-22
  52998.651     4.465E-22
  52998.716     4.492E-22
  52998.781     4.383E-22
  52998.846     4.100E-22
  52998.911     4.158E-22
  52998.976     4.151E-22
  52999.041     4.536E-22
  52999.106     4.645E-22
  52999.171     4.159E-22
  52999.236     4.063E-22
  52999.301     4.123E-22
  52999.366     4.107E-22
  52999.431     4.375E-22
  52999.496     4.468E-22
  52999.561     4.434E-22
  52999.626     4.598E-22
  52999.691     4.686E-22
  52999.756     3.896E-22
  52999.821     2.894E-22
  52999.886     2.358E-22
  52999.951     2.801E-22
  53000.016     3.462E-22
  53000.081     3.854E-22
  53000.146     4.061E-22
  53000.212     3.954E-22
  53000.277     3.341E-22
  53000.342     2.906E-22
  53000.407     3.571E-22
  53000.472     4.297E-22
  53000.537     4.347E-22
  53000.602     3.951E-22
  53000.667     3.422E-22
  53000.732     3.444E-22
  53000.797     3.205E-22
  53000.862     2.835E-22
  53000.927     2.769E-22
  53000.992     3.206E-22
  53001.057     3.842E-22
  53001.122     3.591E-22
  53001.187     2.895E-22
  53001.252     2.683E-22
  53001.317     2.893E-22
  53001.382     2.507E-22
  53001.447     3.043E-22
  53001.512     3.360E-22
  53001.577     3.672E-22
  53001.642     3.933E-22
  53001.707     3.682E-22
  53001.773     3.637E-22
  53001.838     3.830E-22
  53001.903     4.124E-22
  53001.968     3.736E-22
  53002.033     3.413E-22
  53002.098     3.339E-22
  53002.163     3.543E-22
  53002.228     3.811E-22
  53002.293     4.017E-22
  53002.358     4.265E-22
  53002.423     4.305E-22
  53002.488     4.109E-22
  53002.553     3.718E-22
  53002.618     3.141E-22
  53002.683     2.244E-22
  53002.748     1.348E-22
  53002.813     6.494E-23
  53002.878     4.588E-23
  53002.943     1.148E-22
  53003.008     1.633E-22
  53003.073     1.738E-22
  53003.138     2.178E-22
  53003.204     2.468E-22
  53003.269     3.164E-22
  53003.334     3.780E-22
  53003.399     3.716E-22
  53003.464     2.787E-22
  53003.529     2.113E-22
  53003.594     1.617E-22
  53003.659     1.643E-22
  53003.724     1.746E-22
  53003.789     1.348E-22
  53003.854     6.960E-23
  53003.919     3.895E-23
  53003.984     9.988E-24
  53004.049     9.747E-24
  53004.114     5.143E-23
  53004.179     1.581E-22
  53004.244     2.719E-22
  53004.309     3.077E-22
  53004.374     2.647E-22
  53004.439     2.503E-22
  53004.504     2.375E-22
  53004.570     1.966E-22
  53004.635     1.416E-22
  53004.700     9.861E-23
  53004.765     8.716E-23
  53004.830     1.082E-22
  53004.895     1.756E-22
  53004.960     1.999E-22
  53005.025     1.977E-22
  53005.090     1.608E-22
  53005.155     7.176E-23
  53005.220     8.593E-24
  53005.285    -6.851E-23
  53005.350    -1.085E-22
  53005.415    -8.738E-23
  53005.480    -5.280E-23
  53005.545    -3.965E-23
  53005.610    -5.108E-23
  53005.675    -2.585E-23
  53005.741     1.173E-23
  53005.806     4.063E-23
  53005.871     7.799E-23
  53005.936     1.005E-22
  53006.001     9.730E-23
  53006.066     8.194E-23
  53006.131     1.425E-22
  53006.196     1.311E-22
  53006.261     8.342E-23
  53006.326     5.487E-23
  53006.391     6.352E-23
  53006.456     8.155E-23
  53006.521     1.040E-22
  53006.586     1.002E-22
  53006.651     6.441E-23
  53006.716     8.055E-24
  53006.781    -4.688E-23
  53006.846    -3.851E-23
  53006.912    -3.736E-23
  53006.977    -5.030E-23
  53007.042    -6.526E-23
  53007.107    -5.123E-23
  53007.172    -8.267E-24
  53007.237    -1.005E-23
  53007.302     3.899E-23
  53007.367     1.348E-22
  53007.432     2.238E-22
  53007.497     3.163E-22
  53007.562     4.126E-22
  53007.627     4.354E-22
  53007.692     3.913E-22
  53007.757     3.474E-22
  53007.822     3.016E-22
  53007.887     3.076E-22
  53007.952     3.519E-22
  53008.018     4.077E-22
  53008.083     4.688E-22
  53008.148     5.307E-22
  53008.213     5.620E-22
  53008.278     5.172E-22
  53008.343     4.337E-22
  53008.408     3.749E-22
  53008.473     3.567E-22
  53008.538     3.967E-22
  53008.603     3.504E-22
  53008.668     3.696E-22
  53008.733     4.094E-22
  53008.798     4.338E-22
  53008.863     4.432E-22
  53008.928     4.029E-22
  53008.993     3.347E-22
  53009.059     2.490E-22
  53009.124     1.825E-22
  53009.189     1.180E-22
  53009.254     1.321E-22
  53009.319     1.603E-22
  53009.384     1.515E-22
  53009.449     1.230E-22
  53009.514     1.359E-22
  53009.579     1.463E-22
  53009.644     1.742E-22
  53009.709     1.132E-22
  53009.774     8.576E-24
  53009.839    -6.354E-23
  53009.904    -7.868E-23
  53009.969    -6.381E-23
  53010.035    -5.358E-23
  53010.100    -6.375E-23
  53010.165    -5.672E-24
  53010.230     7.592E-23
  53010.297     9.975E-23
