# 18O2;(11,0);79K;54962-5297 cm-1;4749 pts
  54962.090     1.350E-21
  54962.160     1.602E-21
  54962.231     1.247E-21
  54962.301     5.938E-22
  54962.371     2.438E-22
  54962.442     4.917E-22
  54962.512     6.403E-22
  54962.582     8.895E-22
  54962.653     5.881E-22
  54962.723     2.879E-22
  54962.793    -1.596E-22
  54962.864    -5.061E-22
  54962.934    -6.056E-22
  54963.004    -9.012E-22
  54963.075    -9.023E-22
  54963.145    -8.054E-22
  54963.216    -8.065E-22
  54963.286    -8.077E-22
  54963.356    -7.597E-22
  54963.427    -5.643E-22
  54963.497    -4.177E-22
  54963.567    -2.214E-22
  54963.638     2.494E-23
  54963.708     6.212E-22
  54963.778     1.172E-21
  54963.849     1.574E-21
  54963.919     1.725E-21
  54963.989     1.522E-21
  54964.060     1.067E-21
  54964.130     2.654E-22
  54964.200    -2.810E-22
  54964.271    -2.327E-22
  54964.341     2.620E-22
  54964.412     8.100E-22
  54964.482     1.160E-21
  54964.552     1.311E-21
  54964.623     1.309E-21
  54964.693     1.460E-21
  54964.763     1.459E-21
  54964.834     7.532E-22
  54964.904    -1.934E-22
  54964.974    -5.400E-22
  54965.045    -2.945E-22
  54965.115     1.238E-24
  54965.185    -2.474E-22
  54965.256    -5.445E-22
  54965.326    -8.404E-22
  54965.396    -1.037E-21
  54965.467    -9.896E-22
  54965.537    -7.947E-22
  54965.608    -5.501E-22
  54965.678     4.181E-23
  54965.748     4.885E-22
  54965.819     6.873E-22
  54965.889     1.377E-22
  54965.959    -1.609E-22
  54966.030     1.852E-22
  54966.100     3.333E-22
  54966.170    -1.570E-23
  54966.241    -6.639E-23
  54966.311     1.806E-22
  54966.381     4.784E-22
  54966.452     5.272E-22
  54966.522     1.077E-21
  54966.593     1.682E-21
  54966.663     1.783E-21
  54966.733     1.427E-21
  54966.804     5.715E-22
  54966.874     7.224E-23
  54966.944    -2.812E-23
  54967.015     3.685E-22
  54967.085     8.674E-22
  54967.155     7.159E-22
  54967.226     6.147E-22
  54967.296     1.151E-22
  54967.367    -4.798E-22
  54967.437    -7.761E-22
  54967.507    -7.773E-22
  54967.578    -6.309E-22
  54967.648    -2.375E-22
  54967.718    -3.375E-22
  54967.789    -9.289E-22
  54967.859    -1.224E-21
  54967.929    -7.349E-22
  54968.000    -4.900E-22
  54968.070    -6.880E-22
  54968.140    -7.874E-22
  54968.211    -5.919E-22
  54968.281    -3.465E-22
  54968.352    -5.071E-23
  54968.422     3.957E-22
  54968.492     3.946E-22
  54968.563     2.440E-22
  54968.633     2.429E-22
  54968.703     1.920E-22
  54968.774    -5.749E-23
  54968.844     9.028E-23
  54968.914     1.388E-22
  54968.985     8.802E-23
  54969.055    -6.201E-23
  54969.126     2.349E-22
  54969.196     2.836E-22
  54969.266     4.820E-22
  54969.337     4.309E-22
  54969.407     1.807E-22
  54969.477     2.293E-22
  54969.548     7.898E-23
  54969.618    -1.701E-22
  54969.688    -1.713E-22
  54969.759     2.592E-23
  54969.829     2.734E-22
  54969.900     7.220E-22
  54969.970     1.224E-21
  54970.040     1.424E-21
  54970.111     8.188E-22
  54970.181     2.180E-22
  54970.251    -6.247E-22
  54970.322    -1.409E-21
  54970.392    -1.751E-21
  54970.463    -1.800E-21
  54970.533    -1.656E-21
  54970.603    -1.121E-21
  54970.674    -7.790E-22
  54970.744    -1.172E-21
  54970.814    -1.222E-21
  54970.885    -1.321E-21
  54970.955    -1.127E-21
  54971.025    -3.412E-22
  54971.096     4.452E-24
  54971.166     1.524E-22
  54971.237     3.007E-22
  54971.307     7.495E-22
  54971.377     7.985E-22
  54971.448     6.470E-22
  54971.518     5.958E-22
  54971.588     6.447E-22
  54971.659     5.435E-22
  54971.729     3.426E-22
  54971.800     4.281E-23
  54971.870    -1.072E-22
  54971.940    -1.083E-22
  54972.011     1.388E-22
  54972.081     4.867E-22
  54972.151     2.361E-22
  54972.222    -1.364E-23
  54972.292     3.490E-23
  54972.362    -1.590E-23
  54972.433    -1.163E-22
  54972.503    -1.816E-23
  54972.574    -2.671E-22
  54972.644    -3.672E-22
  54972.714    -4.671E-22
  54972.785    -7.146E-22
  54972.855    -2.716E-22
  54972.925     2.237E-22
  54972.996     2.359E-23
  54973.066    -3.245E-22
  54973.137    -4.739E-22
  54973.207    -3.268E-22
  54973.277    -3.279E-22
  54973.348     3.665E-22
  54973.418     1.269E-21
  54973.488     1.369E-21
  54973.559     9.141E-22
  54973.629     6.311E-23
  54973.700    -5.815E-22
  54973.770    -1.074E-21
  54973.840    -8.299E-22
  54973.911    -2.391E-22
  54973.981     5.745E-23
  54974.051     2.554E-22
  54974.122     4.040E-22
  54974.192     5.028E-22
  54974.263     2.022E-22
  54974.333     5.180E-23
  54974.403     1.502E-22
  54974.474     2.985E-22
  54974.544     1.479E-22
  54974.614     1.966E-22
  54974.685     3.450E-22
  54974.755     2.940E-22
  54974.826     1.932E-22
  54974.896    -1.062E-22
  54974.966     1.411E-22
  54975.037     1.898E-22
  54975.107     3.382E-22
  54975.177     9.384E-22
  54975.248     1.290E-21
  54975.318     1.087E-21
  54975.389     5.837E-22
  54975.459     2.328E-22
  54975.529     3.314E-22
  54975.600     6.304E-22
  54975.670     7.295E-22
  54975.740     3.280E-22
  54975.811    -7.132E-23
  54975.881    -1.717E-22
  54975.952     2.249E-22
  54976.022     3.734E-22
  54976.092     4.723E-22
  54976.163     3.712E-22
  54976.233     1.207E-22
  54976.303     6.985E-23
  54976.374    -3.071E-23
  54976.444    -1.807E-22
  54976.515    -2.314E-22
  54976.585    -8.377E-23
  54976.655     1.446E-23
  54976.726     1.333E-23
  54976.796     1.615E-22
  54976.866     2.600E-22
  54976.937     2.589E-22
  54977.007     1.083E-22
  54977.078    -2.900E-22
  54977.148    -3.901E-22
  54977.218    -9.395E-23
  54977.289    -9.508E-23
  54977.359    -1.954E-22
  54977.429     2.014E-24
  54977.500    -2.473E-22
  54977.570    -4.958E-22
  54977.641    -4.475E-22
  54977.711    -4.486E-22
  54977.781    -6.472E-22
  54977.852    -5.497E-22
  54977.922    -1.549E-22
  54977.993     4.417E-22
  54978.063     6.910E-22
  54978.133     5.896E-22
  54978.204     3.384E-22
  54978.274     1.875E-22
  54978.344     4.360E-22
  54978.415     1.853E-22
  54978.485    -3.622E-22
  54978.556    -3.633E-22
  54978.626     8.226E-23
  54978.696     2.805E-22
  54978.767    -1.949E-23
  54978.837    -1.200E-22
  54978.908    -2.204E-22
  54978.978    -1.223E-22
  54979.048     2.571E-23
  54979.119     2.238E-22
  54979.189     5.726E-22
  54979.259     6.718E-22
  54979.330     5.704E-22
  54979.400     3.691E-22
  54979.471     4.680E-22
  54979.541     6.171E-22
  54979.611     5.658E-22
  54979.682    -1.336E-22
  54979.752    -1.121E-21
  54979.823    -1.562E-21
  54979.893    -1.661E-21
  54979.963    -1.662E-21
  54980.034    -1.565E-21
  54980.104    -1.225E-21
  54980.174    -6.857E-22
  54980.245     1.558E-22
  54980.315     1.049E-22
  54980.386     1.536E-22
  54980.456     5.523E-22
  54980.526     8.524E-22
  54980.597     9.016E-22
  54980.667     8.501E-22
  54980.738     8.993E-22
  54980.808     1.100E-21
  54980.878     1.250E-21
  54980.949     5.945E-22
  54981.019    -1.551E-22
  54981.089    -6.511E-22
  54981.160    -9.476E-22
  54981.230    -9.487E-22
  54981.301    -1.097E-21
  54981.371    -1.489E-21
  54981.441    -1.050E-21
  54981.512    -5.098E-22
  54981.582    -3.625E-22
  54981.653     3.356E-23
  54981.723     3.317E-22
  54981.793     8.823E-22
  54981.864     1.184E-21
  54981.934     9.304E-22
  54982.005     5.775E-22
  54982.075     5.262E-22
  54982.145     5.752E-22
  54982.216     8.755E-22
  54982.286     1.076E-21
  54982.356     1.378E-21
  54982.427     1.276E-21
  54982.497     7.704E-22
  54982.568     3.681E-22
  54982.638    -3.206E-23
  54982.708    -3.311E-22
  54982.779    -7.769E-22
  54982.849    -7.287E-22
  54982.920    -4.335E-22
  54982.990    -3.356E-22
  54983.060    -6.335E-22
  54983.131    -1.078E-21
  54983.201    -1.128E-21
  54983.272    -1.715E-21
  54983.342    -1.862E-21
  54983.412    -1.620E-21
  54983.483    -1.377E-21
  54983.553    -1.133E-21
  54983.624    -1.330E-21
  54983.694    -1.527E-21
  54983.764    -1.382E-21
  54983.835    -1.334E-21
  54983.905    -1.335E-21
  54983.976    -1.385E-21
  54984.046    -1.776E-21
  54984.116    -1.582E-21
  54984.187    -1.242E-21
  54984.257    -4.055E-22
  54984.327     1.400E-22
  54984.398     2.886E-22
  54984.468     3.375E-22
  54984.539     5.868E-22
  54984.609     7.867E-22
  54984.679     5.344E-22
  54984.750    -1.630E-23
  54984.820    -6.719E-23
  54984.891    -1.857E-23
  54984.961     1.298E-22
  54985.031    -2.083E-23
  54985.102    -1.712E-22
  54985.172    -4.203E-22
  54985.243    -5.204E-22
  54985.313    -9.161E-22
  54985.383    -1.359E-21
  54985.454    -1.458E-21
  54985.524    -1.067E-21
  54985.595    -3.280E-22
  54985.665     4.183E-22
  54985.735     5.174E-22
  54985.806     1.162E-22
  54985.876    -2.829E-22
  54985.947    -6.306E-22
  54986.017    -2.356E-22
  54986.087     2.614E-22
  54986.158     3.603E-22
  54986.228     1.094E-22
  54986.299    -2.401E-22
  54986.369    -2.909E-22
  54986.439     6.285E-24
  54986.510     2.546E-22
  54986.580     4.537E-22
  54986.651     4.024E-22
  54986.721     2.013E-22
  54986.791     2.501E-22
  54986.862     2.489E-22
  54986.932     2.978E-22
  54987.003    -5.258E-23
  54987.073    -6.981E-22
  54987.143    -1.093E-21
  54987.214    -1.094E-21
  54987.284    -8.987E-22
  54987.355    -3.563E-22
  54987.425     1.400E-22
  54987.495     6.396E-22
  54987.566     5.883E-22
  54987.636     3.683E-23
  54987.707    -5.106E-22
  54987.777    -5.612E-22
  54987.847    -3.643E-22
  54987.918    -6.733E-23
  54987.988     3.809E-22
  54988.059     2.797E-22
  54988.129     5.290E-22
  54988.199     6.785E-22
  54988.270     5.267E-22
  54988.340     7.266E-22
  54988.411     5.244E-22
  54988.481     5.735E-22
  54988.551     6.729E-22
  54988.622     4.709E-22
  54988.692    -7.981E-23
  54988.763     1.184E-22
  54988.833     1.122E-21
  54988.903     2.345E-21
  54988.974     3.431E-21
  54989.044     4.006E-21
  54989.115     4.057E-21
  54989.185     3.741E-21
  54989.255     3.270E-21
  54989.326     2.957E-21
  54989.396     3.060E-21
  54989.467     2.851E-21
  54989.537     2.540E-21
  54989.607     2.128E-21
  54989.678     1.769E-21
  54989.748     1.768E-21
  54989.819     1.767E-21
  54989.889     1.817E-21
  54989.959     1.969E-21
  54990.030     1.916E-21
  54990.100     1.457E-21
  54990.171     1.455E-21
  54990.241     1.556E-21
  54990.312     1.402E-21
  54990.382     1.605E-21
  54990.452     1.807E-21
  54990.523     1.247E-21
  54990.593     5.395E-22
  54990.664     2.377E-22
  54990.734     1.366E-22
  54990.804     9.388E-22
  54990.875     1.648E-21
  54990.945     1.749E-21
  54991.016     1.340E-21
  54991.086     5.817E-22
  54991.156     2.996E-23
  54991.227    -3.691E-22
  54991.297    -2.710E-22
  54991.368    -7.314E-23
  54991.438     5.761E-22
  54991.508     9.779E-22
  54991.579     9.768E-22
  54991.649     1.229E-21
  54991.720     9.745E-22
  54991.790     3.697E-22
  54991.860    -5.281E-22
  54991.931    -9.243E-22
  54992.001    -6.787E-22
  54992.072    -4.324E-22
  54992.142     1.406E-23
  54992.213     7.145E-22
  54992.283     6.630E-22
  54992.353     1.065E-23
  54992.424    -4.034E-23
  54992.494     1.582E-22
  54992.565     1.071E-22
  54992.635     5.601E-23
  54992.705     1.548E-22
  54992.776    -4.602E-23
  54992.846    -9.698E-23
  54992.917     3.515E-22
  54992.987     1.005E-21
  54993.057     1.358E-21
  54993.128     1.104E-21
  54993.198     6.482E-22
  54993.269     4.963E-22
  54993.339     3.948E-22
  54993.410     2.434E-22
  54993.480    -5.738E-23
  54993.550     4.124E-23
  54993.621     3.903E-22
  54993.691     4.895E-22
  54993.762     1.377E-22
  54993.832     1.366E-22
  54993.902     2.855E-22
  54993.973     4.850E-22
  54994.043     7.857E-22
  54994.114     7.845E-22
  54994.184     4.816E-22
  54994.254     2.298E-22
  54994.325     3.288E-22
  54994.395    -1.220E-22
  54994.466    -4.214E-22
  54994.536    -2.238E-22
  54994.607    -3.244E-22
  54994.677    -5.735E-22
  54994.747    -6.241E-22
  54994.818    -9.216E-22
  54994.888    -8.734E-22
  54994.959    -8.252E-22
  54995.029    -7.770E-22
  54995.099    -5.308E-22
  54995.170    -3.335E-22
  54995.240     5.650E-22
  54995.311     1.068E-21
  54995.381     4.622E-22
  54995.452    -6.355E-22
  54995.522    -1.130E-21
  54995.592    -9.834E-22
  54995.663    -6.884E-22
  54995.733    -5.905E-22
  54995.804    -6.412E-22
  54995.874    -4.937E-22
  54995.944    -5.444E-22
  54996.015    -4.960E-22
  54996.085    -2.985E-22
  54996.156    -6.469E-22
  54996.226    -7.469E-22
  54996.297    -8.961E-22
  54996.367    -1.144E-21
  54996.437    -1.243E-21
  54996.508    -5.535E-22
  54996.578     4.429E-22
  54996.649     9.961E-22
  54996.719     7.425E-22
  54996.790     3.392E-22
  54996.860     5.389E-22
  54996.930     8.400E-22
  54997.001     3.859E-22
  54997.071     1.843E-22
  54997.142     3.322E-23
  54997.212    -6.773E-23
  54997.282    -1.686E-22
  54997.353    -4.183E-22
  54997.423    -6.673E-22
  54997.494    -3.710E-22
  54997.564     2.640E-23
  54997.635    -2.466E-23
  54997.705    -5.233E-22
  54997.775    -8.707E-22
  54997.846    -1.069E-21
  54997.916    -8.730E-22
  54997.987    -5.278E-22
  54998.057    -2.806E-22
  54998.127    -3.262E-23
  54998.198     5.676E-22
  54998.268     7.175E-22
  54998.339     3.142E-22
  54998.409    -3.716E-23
  54998.480    -2.377E-22
  54998.550    -2.886E-22
  54998.620    -7.855E-22
  54998.691    -7.372E-22
  54998.761    -6.394E-22
  54998.832    -8.384E-22
  54998.902    -5.426E-22
  54998.973    -1.958E-22
  54999.043    -9.729E-23
  54999.113     2.515E-22
  54999.184     8.036E-22
  54999.254     6.008E-22
  54999.325     5.494E-22
  54999.395     3.473E-22
  54999.466     3.963E-22
  54999.536     7.979E-22
  54999.606     1.050E-21
  54999.677     9.472E-22
  54999.747     1.047E-21
  54999.818     7.934E-22
  54999.888     3.895E-22
  54999.959    -1.121E-22
  55000.029    -5.608E-22
  55000.099    -7.105E-22
  55000.170    -6.622E-22
  55000.240    -6.138E-22
  55000.311    -7.139E-22
  55000.381    -5.169E-22
  55000.452    -3.193E-22
  55000.522     2.861E-23
  55000.592     3.781E-22
  55000.663     2.766E-22
  55000.733    -1.744E-22
  55000.804    -1.257E-22
  55000.874    -3.261E-22
  55000.944    -5.756E-22
  55001.015    -5.271E-22
  55001.085    -1.801E-22
  55001.156    -3.159E-23
  55001.226    -3.273E-23
  55001.297     1.161E-22
  55001.367    -3.500E-23
  55001.437    -4.346E-22
  55001.508    -9.310E-22
  55001.578    -1.031E-21
  55001.649    -8.839E-22
  55001.719    -8.356E-22
  55001.790    -9.176E-23
  55001.860     7.099E-22
  55001.931     1.418E-21
  55002.001     1.519E-21
  55002.071     1.010E-21
  55002.142     1.025E-22
  55002.212    -3.477E-22
  55002.283    -3.489E-22
  55002.353    -4.494E-22
  55002.424    -5.002E-22
  55002.494    -6.997E-22
  55002.564    -7.998E-22
  55002.635    -7.515E-22
  55002.705    -5.544E-22
  55002.776    -1.576E-22
  55002.846     9.108E-23
  55002.917    -1.599E-22
  55002.987    -7.077E-22
  55003.057    -7.583E-22
  55003.128    -2.630E-22
  55003.198    -1.644E-22
  55003.269    -6.573E-23
  55003.339     1.332E-22
  55003.410     3.326E-22
  55003.480     1.292E-21
  55003.550     1.954E-21
  55003.621     1.442E-21
  55003.691     6.299E-22
  55003.762     2.266E-22
  55003.832    -1.248E-22
  55003.903    -4.745E-22
  55003.973    -6.245E-22
  55004.043    -3.276E-22
  55004.114     2.057E-23
  55004.184     6.945E-23
  55004.255     1.685E-22
  55004.325     2.676E-22
  55004.396     2.163E-22
  55004.466     5.670E-22
  55004.537     7.676E-22
  55004.607     6.655E-22
  55004.677     4.126E-22
  55004.748    -8.963E-23
  55004.818    -1.906E-22
  55004.889     1.582E-22
  55004.959     7.103E-22
  55005.030     1.165E-21
  55005.100     1.469E-21
  55005.170     1.112E-21
  55005.241     1.009E-21
  55005.311     8.562E-22
  55005.382     7.035E-22
  55005.452     2.996E-22
  55005.523     1.981E-22
  55005.593     3.978E-22
  55005.663     2.962E-22
  55005.734     1.947E-22
  55005.804    -6.757E-24
  55005.875    -2.575E-22
  55005.945    -7.555E-22
  55006.016    -1.004E-21
  55006.086    -1.251E-21
  55006.157    -1.400E-21
  55006.227    -1.352E-21
  55006.297    -1.008E-21
  55006.368    -6.136E-22
  55006.438    -2.168E-22
  55006.509     2.825E-22
  55006.579     4.825E-22
  55006.650     7.335E-22
  55006.720     9.853E-22
  55006.790     1.187E-21
  55006.861     9.830E-22
  55006.931     8.806E-22
  55007.002     9.807E-22
  55007.072     1.132E-21
  55007.143     8.772E-22
  55007.213     7.055E-23
  55007.284    -6.780E-22
  55007.354    -1.025E-21
  55007.424    -1.175E-21
  55007.495    -1.274E-21
  55007.565    -1.226E-21
  55007.636    -1.326E-21
  55007.706    -1.130E-21
  55007.777    -6.364E-22
  55007.847    -1.397E-22
  55007.918    -4.399E-22
  55007.988    -8.380E-22
  55008.058    -1.037E-21
  55008.129    -1.186E-21
  55008.199    -1.433E-21
  55008.270    -9.415E-22
  55008.340    -2.974E-22
  55008.411    -4.890E-23
  55008.481    -1.577E-26
  55008.552    -2.011E-22
  55008.622    -2.295E-24
  55008.692     7.004E-22
  55008.763     1.206E-21
  55008.833     1.103E-21
  55008.904     6.970E-22
  55008.974     1.423E-22
  55009.045    -3.586E-22
  55009.115    -5.090E-22
  55009.186    -4.107E-22
  55009.256    -1.255E-23
  55009.326     5.388E-22
  55009.397     1.043E-21
  55009.467     1.347E-21
  55009.538     6.363E-22
  55009.608     3.181E-23
  55009.679    -2.692E-22
  55009.749    -1.705E-22
  55009.820     3.294E-22
  55009.890     1.035E-21
  55009.960     1.697E-21
  55010.031     1.491E-21
  55010.101     5.767E-22
  55010.172    -2.772E-22
  55010.242    -5.770E-22
  55010.313    -4.787E-22
  55010.383    -3.079E-23
  55010.454     2.689E-22
  55010.524     7.719E-22
  55010.594     8.213E-22
  55010.665     6.685E-22
  55010.735     1.138E-22
  55010.806    -3.871E-22
  55010.876    -4.878E-22
  55010.947    -6.877E-22
  55011.017    -7.880E-22
  55011.088    -1.184E-21
  55011.158    -1.186E-21
  55011.228    -8.409E-22
  55011.299    -3.453E-22
  55011.369    -3.962E-22
  55011.440    -4.472E-22
  55011.510    -9.939E-22
  55011.581    -1.192E-21
  55011.651    -1.095E-21
  55011.722    -1.441E-21
  55011.792    -1.932E-21
  55011.863    -1.541E-21
  55011.933    -1.001E-21
  55012.003    -7.544E-22
  55012.074    -4.076E-22
  55012.144    -4.088E-22
  55012.215    -1.005E-21
  55012.285    -1.548E-21
  55012.356    -9.581E-22
  55012.426    -5.626E-22
  55012.497     2.359E-22
  55012.567     8.400E-22
  55012.637     7.377E-22
  55012.708     7.365E-22
  55012.778     6.343E-22
  55012.849     3.307E-22
  55012.919     5.311E-22
  55012.990     6.814E-22
  55013.060     9.334E-22
  55013.131     4.268E-22
  55013.201     2.376E-23
  55013.272    -6.260E-22
  55013.342    -1.270E-21
  55013.412    -1.222E-21
  55013.483    -7.783E-22
  55013.553    -6.306E-22
  55013.624    -8.302E-22
  55013.694    -1.029E-21
  55013.765    -1.030E-21
  55013.835    -7.344E-22
  55013.906    -3.875E-22
  55013.976    -1.390E-22
  55014.047    -3.399E-22
  55014.117    -6.397E-22
  55014.187    -5.414E-22
  55014.258    -3.433E-22
  55014.328    -4.441E-22
  55014.399    -4.453E-22
  55014.469    -3.966E-22
  55014.540    -3.977E-22
  55014.610     4.029E-22
  55014.681     1.467E-21
  55014.751     2.185E-21
  55014.822     2.235E-21
  55014.892     1.976E-21
  55014.962     1.770E-21
  55015.033     1.206E-21
  55015.103     7.484E-22
  55015.174     6.966E-22
  55015.244     4.934E-22
  55015.315     2.405E-22
  55015.385     3.400E-22
  55015.456     5.405E-22
  55015.526     7.415E-22
  55015.597     5.887E-22
  55015.667     4.362E-22
  55015.737     2.839E-22
  55015.808    -5.676E-22
  55015.878    -7.675E-22
  55015.949    -6.694E-22
  55016.019    -2.220E-22
  55016.090     1.777E-22
  55016.160     5.796E-22
  55016.231     1.187E-21
  55016.301     1.033E-21
  55016.372     3.744E-22
  55016.442    -7.882E-23
  55016.513    -1.300E-22
  55016.583    -4.308E-22
  55016.653    -6.808E-22
  55016.724    -4.331E-22
  55016.794    -3.345E-22
  55016.865    -4.852E-22
  55016.935    -1.369E-22
  55017.006     4.649E-22
  55017.076     8.684E-22
  55017.147     1.020E-21
  55017.217     3.103E-22
  55017.288    -6.413E-22
  55017.358    -8.906E-22
  55017.428    -5.939E-22
  55017.499     5.444E-23
  55017.569     3.549E-22
  55017.640     2.531E-22
  55017.710     5.101E-23
  55017.781    -1.506E-22
  55017.851    -5.510E-22
  55017.922    -1.196E-21
  55017.992    -1.247E-21
  55018.063    -6.539E-22
  55018.133    -5.612E-23
  55018.204     2.943E-22
  55018.274     3.939E-22
  55018.344     5.947E-22
  55018.415     4.925E-22
  55018.485     5.924E-22
  55018.556     7.937E-22
  55018.626     1.097E-21
  55018.697     1.761E-21
  55018.767     2.068E-21
  55018.838     1.912E-21
  55018.908     1.655E-21
  55018.979     1.193E-21
  55019.049     4.823E-22
  55019.120     2.818E-23
  55019.190    -2.734E-22
  55019.261    -1.745E-22
  55019.331     2.257E-22
  55019.401     4.261E-22
  55019.472     7.282E-22
  55019.542     6.258E-22
  55019.613     2.715E-22
  55019.683     2.200E-22
  55019.754     3.196E-22
  55019.824     1.674E-22
  55019.895     1.663E-22
  55019.965    -2.360E-22
  55020.036    -4.369E-22
  55020.106    -3.382E-22
  55020.177     1.115E-22
  55020.247     5.639E-22
  55020.318     9.174E-22
  55020.388     9.162E-22
  55020.458     1.118E-21
  55020.529     1.628E-21
  55020.599     2.038E-21
  55020.670     2.192E-21
  55020.740     2.294E-21
  55020.811     2.500E-21
  55020.881     1.931E-21
  55020.952     9.579E-22
  55021.022     4.753E-23
  55021.093    -4.540E-22
  55021.163    -5.511E-23
  55021.234     4.468E-22
  55021.304     6.985E-22
  55021.375     9.002E-22
  55021.445     5.950E-22
  55021.515     6.951E-22
  55021.586     7.953E-22
  55021.656     5.410E-22
  55021.727     4.893E-22
  55021.797     5.893E-22
  55021.868     3.861E-22
  55021.938     3.850E-22
  55022.009     3.838E-22
  55022.079     1.309E-22
  55022.150    -1.713E-22
  55022.220    -4.723E-22
  55022.291    -1.235E-22
  55022.361     7.604E-23
  55022.432     2.258E-22
  55022.502     2.246E-22
  55022.573    -3.782E-22
  55022.643    -5.789E-22
  55022.713    -7.293E-22
  55022.784    -8.794E-22
  55022.854    -9.302E-22
  55022.925    -1.228E-21
  55022.995    -1.427E-21
  55023.066    -1.379E-21
  55023.136    -1.182E-21
  55023.207    -8.367E-22
  55023.277    -5.892E-22
  55023.348    -9.053E-23
  55023.418    -4.152E-23
  55023.489    -4.266E-23
  55023.559    -1.441E-22
  55023.630     5.547E-23
  55023.700     5.079E-22
  55023.771     3.048E-22
  55023.841     1.817E-24
  55023.912    -2.500E-22
  55023.982    -7.499E-22
  55024.052    -1.296E-21
  55024.123    -1.593E-21
  55024.193    -1.298E-21
  55024.264    -8.538E-22
  55024.334    -6.561E-22
  55024.405    -7.567E-22
  55024.475    -1.155E-21
  55024.546    -1.403E-21
  55024.616    -1.502E-21
  55024.687    -1.602E-21
  55024.757    -1.554E-21
  55024.828    -1.061E-21
  55024.898    -2.159E-22
  55024.969     3.863E-22
  55025.039     6.379E-22
  55025.110     6.368E-22
  55025.180     3.324E-22
  55025.251     3.817E-22
  55025.321     5.321E-22
  55025.391     3.794E-22
  55025.462     3.278E-22
  55025.532     2.258E-22
  55025.603     5.782E-22
  55025.673     5.770E-22
  55025.744     7.279E-22
  55025.814     9.298E-22
  55025.885     8.271E-22
  55025.955     8.259E-22
  55026.026     8.248E-22
  55026.096     9.761E-22
  55026.167     1.383E-21
  55026.237     1.536E-21
  55026.308     1.740E-21
  55026.378     1.585E-21
  55026.449     1.379E-21
  55026.519     1.429E-21
  55026.590     1.633E-21
  55026.660     1.683E-21
  55026.731     1.682E-21
  55026.801     1.783E-21
  55026.872     2.298E-21
  55026.942     2.661E-21
  55027.012     2.816E-21
  55027.083     2.450E-21
  55027.153     1.726E-21
  55027.224     1.520E-21
  55027.294     1.467E-21
  55027.365     1.415E-21
  55027.435     1.311E-21
  55027.506     1.310E-21
  55027.576     1.003E-21
  55027.647     9.001E-22
  55027.717     1.460E-21
  55027.788     1.870E-21
  55027.858     1.921E-21
  55027.929     2.385E-21
  55027.999     2.695E-21
  55028.070     2.694E-21
  55028.140     2.485E-21
  55028.211     1.863E-21
  55028.281     1.451E-21
  55028.352     1.399E-21
  55028.422     1.091E-21
  55028.493     9.881E-22
  55028.563     5.807E-22
  55028.634    -3.766E-22
  55028.704    -7.270E-22
  55028.775    -5.288E-22
  55028.845    -6.297E-22
  55028.916    -6.806E-22
  55028.986    -6.818E-22
  55029.056    -8.322E-22
  55029.127    -7.339E-22
  55029.197    -6.354E-22
  55029.268    -3.369E-22
  55029.338    -4.380E-22
  55029.409    -4.392E-22
  55029.479    -2.402E-22
  55029.550     3.624E-22
  55029.620     9.698E-22
  55029.691     1.173E-21
  55029.761     1.171E-21
  55029.832     7.630E-22
  55029.902     2.557E-22
  55029.973    -3.483E-22
  55030.043    -6.990E-22
  55030.114    -6.503E-22
  55030.184    -8.505E-22
  55030.255    -7.024E-22
  55030.325    -4.041E-22
  55030.396    -5.434E-23
  55030.466     1.961E-22
  55030.537     5.487E-22
  55030.607     7.504E-22
  55030.678     8.509E-22
  55030.748     5.453E-22
  55030.819     2.913E-22
  55030.889     3.407E-22
  55030.960     5.925E-22
  55031.030     2.374E-22
  55031.101    -2.665E-22
  55031.171    -4.678E-22
  55031.242    -4.190E-22
  55031.312    -1.195E-22
  55031.383     2.317E-22
  55031.453     4.326E-22
  55031.524     4.314E-22
  55031.594     5.822E-22
  55031.665     7.840E-22
  55031.735     4.280E-22
  55031.805     1.240E-22
  55031.876     3.751E-22
  55031.946     1.721E-22
  55032.017    -2.313E-22
  55032.087    -2.825E-22
  55032.158    -3.338E-22
  55032.228    -4.350E-22
  55032.299    -6.858E-22
  55032.369    -8.363E-22
  55032.440    -1.234E-21
  55032.510    -1.827E-21
  55032.581    -1.828E-21
  55032.651    -1.089E-21
  55032.722    -5.430E-22
  55032.792     7.275E-24
  55032.863     6.123E-22
  55032.933     9.160E-22
  55033.004     8.131E-22
  55033.074     9.137E-22
  55033.145     9.635E-22
  55033.215     9.624E-22
  55033.286     8.594E-22
  55033.356     1.113E-21
  55033.427     1.061E-21
  55033.497     8.560E-22
  55033.568     5.501E-22
  55033.638     4.983E-22
  55033.709     9.544E-22
  55033.779     1.208E-21
  55033.850     1.669E-21
  55033.920     1.925E-21
  55033.991     1.821E-21
  55034.061     1.614E-21
  55034.132     1.203E-21
  55034.202     1.304E-21
  55034.273     1.303E-21
  55034.343     1.097E-21
  55034.414     5.364E-22
  55034.484     3.833E-22
  55034.555     7.371E-22
  55034.625     1.144E-21
  55034.696     1.296E-21
  55034.766     1.141E-21
  55034.837     2.765E-22
  55034.907    -4.785E-22
  55034.978    -6.295E-22
  55035.048    -4.808E-22
  55035.119    -2.315E-22
  55035.189    -2.828E-22
  55035.260    -2.839E-22
  55035.330     1.636E-23
  55035.401     2.168E-22
  55035.471     6.442E-23
  55035.542    -8.770E-23
  55035.612    -1.391E-22
  55035.683    -8.999E-23
  55035.753     1.102E-22
  55035.824     1.595E-22
  55035.894     7.189E-24
  55035.965     3.087E-22
  55036.035     6.622E-22
  55036.106     3.570E-22
  55036.176     2.042E-22
  55036.247    -4.887E-23
  55036.317    -1.506E-22
  55036.388     4.952E-23
  55036.458     3.007E-22
  55036.529     1.985E-22
  55036.599     4.609E-23
  55036.670     9.533E-23
  55036.740     3.973E-22
  55036.811     9.039E-22
  55036.881     1.517E-21
  55036.952     2.083E-21
  55037.022     2.810E-21
  55037.093     2.965E-21
  55037.163     2.651E-21
  55037.234     2.234E-21
  55037.304     1.974E-21
  55037.375     1.714E-21
  55037.445     1.354E-21
  55037.516     1.045E-21
  55037.586     7.895E-22
  55037.657     9.411E-22
  55037.727     1.093E-21
  55037.798     1.399E-21
  55037.868     2.068E-21
  55037.939     2.326E-21
  55038.009     1.859E-21
  55038.080     1.343E-21
  55038.150     9.331E-22
  55038.221     8.810E-22
  55038.291     6.763E-22
  55038.362     7.769E-22
  55038.432     8.266E-22
  55038.503     9.784E-22
  55038.573     1.028E-21
  55038.644     1.027E-21
  55038.714     1.128E-21
  55038.785     8.209E-22
  55038.855     1.075E-21
  55038.926     1.741E-21
  55038.996     2.049E-21
  55039.067     2.672E-21
  55039.137     3.352E-21
  55039.208     3.986E-21
  55039.278     4.625E-21
  55039.349     5.323E-21
  55039.419     6.630E-21
  55039.490     7.681E-21
  55039.560     8.184E-21
  55039.631     8.859E-21
  55039.701     9.085E-21
  55039.772     8.970E-21
  55039.842     9.083E-21
  55039.913     9.138E-21
  55039.983     9.137E-21
  55040.054     9.421E-21
  55040.124     9.249E-21
  55040.195     9.077E-21
  55040.265     8.906E-21
  55040.336     8.961E-21
  55040.406     9.358E-21
  55040.477     9.757E-21
  55040.547     1.033E-20
  55040.618     1.062E-20
  55040.688     1.004E-20
  55040.759     8.897E-21
  55040.829     8.219E-21
  55040.900     7.882E-21
  55040.970     7.713E-21
  55041.041     7.378E-21
  55041.111     6.273E-21
  55041.182     5.185E-21
  55041.252     4.112E-21
  55041.323     3.106E-21
  55041.393     2.374E-21
  55041.464     1.854E-21
  55041.534     1.236E-21
  55041.605     7.750E-22
  55041.675     5.705E-22
  55041.746     4.171E-22
  55041.816    -2.400E-22
  55041.887    -2.914E-22
  55041.957     2.112E-22
  55042.028     4.125E-22
  55042.099     2.089E-22
  55042.169     3.089E-22
  55042.240     5.613E-22
  55042.310     9.675E-22
  55042.381     7.624E-22
  55042.451     5.071E-22
  55042.522     3.032E-22
  55042.592     2.515E-22
  55042.663    -2.165E-24
  55042.733    -3.313E-24
  55042.804     4.597E-23
  55042.874    -2.572E-22
  55042.945    -2.081E-22
  55043.015    -1.087E-22
  55043.086    -1.098E-22
  55043.156    -3.622E-22
  55043.227    -2.127E-22
  55043.297     2.906E-22
  55043.368     7.972E-22
  55043.438     1.051E-21
  55043.509     1.050E-21
  55043.579     4.887E-22
  55043.650    -6.863E-23
  55043.720    -8.715E-22
  55043.791    -1.518E-21
  55043.861    -1.568E-21
  55043.932    -1.421E-21
  55044.002    -1.026E-21
  55044.073    -5.275E-22
  55044.143    -2.627E-23
  55044.214     5.291E-22
  55044.284     6.805E-22
  55044.355     4.253E-22
  55044.425     1.956E-23
  55044.496    -2.334E-22
  55044.566     6.773E-23
  55044.637     3.700E-22
  55044.708     6.736E-22
  55044.778     9.273E-22
  55044.849     1.131E-21
  55044.919     8.230E-22
  55044.990     6.690E-22
  55045.060     6.170E-22
  55045.131     7.685E-22
  55045.201     9.204E-22
  55045.272     5.119E-22
  55045.342    -1.465E-22
  55045.413    -3.488E-22
  55045.483    -1.992E-22
  55045.554     5.165E-23
  55045.624     3.540E-22
  55045.695     2.515E-22
  55045.765    -1.534E-22
  55045.836     9.755E-23
  55045.906     5.016E-22
  55045.977     5.512E-22
  55046.047     7.536E-22
  55046.118     8.034E-22
  55046.188     3.448E-22
  55046.259    -1.030E-23
  55046.329    -2.130E-22
  55046.400     3.786E-23
  55046.470     3.909E-22
  55046.541     3.390E-22
  55046.611    -1.604E-23
  55046.682    -6.762E-23
  55046.753    -2.198E-22
  55046.823    -4.220E-22
  55046.894    -5.735E-22
  55046.964    -2.233E-22
  55047.035     1.285E-22
  55047.105     4.313E-22
  55047.176     5.317E-22
  55047.246     7.341E-22
  55047.317     1.039E-21
  55047.387     1.038E-21
  55047.458     8.837E-22
  55047.528     7.805E-22
  55047.599     1.699E-22
  55047.669    -2.851E-22
  55047.740    -5.873E-22
  55047.810    -1.038E-21
  55047.881    -1.089E-21
  55047.951    -9.404E-22
  55048.022    -9.914E-22
  55048.092    -8.929E-22
  55048.163    -9.439E-22
  55048.233    -1.442E-21
  55048.304    -1.542E-21
  55048.375    -1.246E-21
  55048.445    -4.985E-22
  55048.516    -1.479E-22
  55048.586     2.247E-24
  55048.657     5.076E-22
  55048.727     5.572E-22
  55048.798     2.516E-22
  55048.868    -2.040E-22
  55048.939    -1.044E-22
  55049.009    -1.559E-22
  55049.080    -3.583E-22
  55049.150    -5.100E-22
  55049.221    -1.090E-22
  55049.291     2.942E-22
  55049.362     3.438E-22
  55049.432     7.494E-22
  55049.503     8.503E-22
  55049.573     4.926E-22
  55049.644     4.407E-22
  55049.714     2.367E-22
  55049.785    -3.698E-22
  55049.856    -1.320E-21
  55049.926    -1.865E-21
  55049.997    -2.161E-21
  55050.067    -1.965E-21
  55050.138    -1.324E-21
  55050.208    -9.274E-22
  55050.279    -6.286E-22
  55050.349    -2.281E-22
  55050.420     2.252E-22
  55050.490     2.747E-22
  55050.561     2.735E-22
  55050.631     7.809E-22
  55050.702     1.343E-21
  55050.772     1.858E-21
  55050.843     2.585E-21
  55050.913     3.055E-21
  55050.984     2.635E-21
  55051.055     2.216E-21
  55051.125     2.111E-21
  55051.196     1.644E-21
  55051.266     9.238E-22
  55051.337     3.623E-22
  55051.407    -9.420E-23
  55051.478    -4.978E-22
  55051.548    -4.990E-22
  55051.619    -2.488E-22
  55051.689     1.032E-22
  55051.760     5.587E-22
  55051.830     8.635E-22
  55051.901     9.134E-22
  55051.971     1.066E-21
  55052.042     1.065E-21
  55052.112     7.567E-22
  55052.183     8.066E-22
  55052.254     6.015E-22
  55052.324    -8.194E-24
  55052.395    -2.111E-22
  55052.465    -6.142E-22
  55052.536    -6.654E-22
  55052.606    -2.649E-22
  55052.677    -4.170E-22
  55052.747    -5.185E-22
  55052.818    -1.676E-22
  55052.888    -2.695E-22
  55052.959    -4.216E-22
  55053.029    -4.227E-22
  55053.100    -2.730E-22
  55053.170    -1.230E-22
  55053.241    -7.364E-23
  55053.311     2.623E-23
  55053.382     1.262E-22
  55053.453    -2.660E-23
  55053.523    -1.287E-22
  55053.594    -7.939E-23
  55053.664     7.104E-23
  55053.735     2.218E-22
  55053.805     5.762E-22
  55053.876     6.260E-22
  55053.946     6.249E-22
  55054.017     5.728E-22
  55054.087     5.207E-22
  55054.158     4.687E-22
  55054.228    -1.402E-22
  55054.299    -6.441E-22
  55054.370    -4.948E-22
  55054.440    -2.445E-22
  55054.511     6.670E-24
  55054.581     1.573E-22
  55054.652    -9.665E-23
  55054.722    -4.503E-22
  55054.793    -9.522E-22
  55054.863    -1.153E-21
  55054.934    -9.545E-22
  55055.004    -8.058E-22
  55055.075    -4.561E-22
  55055.145    -2.560E-22
  55055.216    -4.081E-22
  55055.286    -2.079E-22
  55055.357    -2.594E-22
  55055.428    -4.618E-22
  55055.498    -3.624E-22
  55055.569     3.997E-23
  55055.639     2.921E-22
  55055.710     3.925E-22
  55055.780     3.406E-22
  55055.851     6.958E-22
  55055.921     1.053E-21
  55055.992     7.445E-22
  55056.062     5.394E-22
  55056.133    -1.980E-23
  55056.203    -5.749E-22
  55056.274    -1.126E-21
  55056.345    -1.326E-21
  55056.415    -1.526E-21
  55056.486    -1.576E-21
  55056.556    -1.627E-21
  55056.627    -1.678E-21
  55056.697    -1.975E-21
  55056.768    -1.976E-21
  55056.838    -1.483E-21
  55056.909    -1.286E-21
  55056.979    -1.237E-21
  55057.050    -1.139E-21
  55057.120    -1.140E-21
  55057.191    -1.786E-21
  55057.262    -2.033E-21
  55057.332    -2.035E-21
  55057.403    -1.839E-21
  55057.473    -1.642E-21
  55057.544    -1.544E-21
  55057.614    -1.247E-21
  55057.685    -5.991E-22
  55057.755    -3.993E-22
  55057.826    -6.014E-22
  55057.896    -6.025E-22
  55057.967    -4.530E-22
  55058.038    -4.039E-22
  55058.108    -5.056E-22
  55058.179    -7.575E-22
  55058.249    -9.587E-22
  55058.320    -9.599E-22
  55058.390    -1.360E-21
  55058.461    -1.856E-21
  55058.531    -2.251E-21
  55058.602    -2.055E-21
  55058.672    -1.265E-21
  55058.743    -3.651E-22
  55058.814    -1.141E-22
  55058.884     8.708E-23
  55058.955     1.873E-22
  55059.025    -1.680E-22
  55059.096    -8.226E-22
  55059.166    -1.521E-21
  55059.237    -2.213E-21
  55059.307    -2.411E-21
  55059.378    -1.920E-21
  55059.448    -1.327E-21
  55059.519    -9.794E-22
  55059.590    -7.806E-22
  55059.660    -9.817E-22
  55059.731    -1.282E-21
  55059.801    -1.283E-21
  55059.872    -1.185E-21
  55059.942    -1.285E-21
  55060.013    -1.287E-21
  55060.083    -1.437E-21
  55060.154    -1.982E-21
  55060.224    -2.082E-21
  55060.295    -1.589E-21
  55060.366    -9.933E-22
  55060.436    -4.430E-22
  55060.507    -9.120E-23
  55060.577     2.115E-22
  55060.648     3.119E-22
  55060.718     6.496E-24
  55060.789    -5.494E-22
  55060.859    -6.007E-22
  55060.930    -5.014E-22
  55061.000    -1.498E-22
  55061.071    -1.004E-22
  55061.142    -1.016E-22
  55061.212    -2.037E-22
  55061.283    -3.058E-22
  55061.353    -4.077E-22
  55061.424    -4.592E-22
  55061.494    -2.588E-22
  55061.565    -5.118E-22
  55061.635    -8.640E-22
  55061.706    -1.215E-21
  55061.776    -1.016E-21
  55061.847    -6.169E-22
  55061.918    -2.153E-22
  55061.988     3.917E-22
  55062.059     7.476E-22
  55062.129     1.362E-21
  55062.200     1.413E-21
  55062.270     8.977E-22
  55062.341     2.843E-22
  55062.411    -7.176E-23
  55062.482    -5.770E-22
  55062.553    -8.290E-22
  55062.623    -3.781E-22
  55062.694    -3.288E-22
  55062.764    -4.307E-22
  55062.835    -7.333E-22
  55062.905    -8.347E-22
  55062.976    -6.855E-22
  55063.046    -6.866E-22
  55063.117    -8.882E-22
  55063.188    -8.894E-22
  55063.258    -1.290E-21
  55063.329    -1.191E-21
  55063.399    -7.426E-22
  55063.470    -9.440E-22
  55063.540    -1.394E-21
  55063.611    -1.246E-21
  55063.681    -1.347E-21
  55063.752    -1.198E-21
  55063.823    -8.998E-22
  55063.893    -7.005E-22
  55063.964    -6.012E-22
  55064.034    -7.028E-22
  55064.105    -6.538E-22
  55064.175    -9.055E-22
  55064.246    -8.566E-22
  55064.316    -8.077E-22
  55064.387    -8.088E-22
  55064.458    -8.100E-22
  55064.528    -6.104E-22
  55064.599    -4.104E-22
  55064.669    -3.107E-22
  55064.740     1.943E-22
  55064.810     8.562E-22
  55064.881     1.266E-21
  55064.951     1.265E-21
  55065.022     9.553E-22
  55065.093     6.980E-22
  55065.163     5.437E-22
  55065.234    -2.190E-22
  55065.304    -6.231E-22
  55065.375    -6.745E-22
  55065.445    -1.226E-21
  55065.516    -1.426E-21
  55065.586    -1.427E-21
  55065.657    -1.229E-21
  55065.728    -9.809E-22
  55065.798    -1.132E-21
  55065.869    -1.033E-21
  55065.939    -8.843E-22
  55066.010    -7.852E-22
  55066.080    -8.365E-22
  55066.151    -8.377E-22
  55066.221    -5.879E-22
  55066.292    -6.393E-22
  55066.363    -7.409E-22
  55066.433    -8.423E-22
  55066.504    -8.935E-22
  55066.574    -7.443E-22
  55066.645    -6.953E-22
  55066.715    -1.927E-22
  55066.786     1.608E-22
  55066.856     3.631E-22
  55066.927     2.601E-22
  55066.998     5.168E-24
  55067.068    -4.665E-23
  55067.139    -3.006E-22
  55067.209    -2.513E-22
  55067.280    -1.513E-22
  55067.350    -6.014E-25
  55067.421     4.048E-22
  55067.492     7.611E-22
  55067.562     7.088E-22
  55067.633     8.613E-22
  55067.703     4.511E-22
  55067.774    -1.594E-22
  55067.844    -5.934E-23
  55067.915     2.949E-22
  55067.985     7.531E-22
  55068.056     1.008E-21
  55068.127     1.161E-21
  55068.197     1.212E-21
  55068.268     6.461E-22
  55068.338     1.862E-22
  55068.409    -2.709E-22
  55068.479    -8.758E-22
  55068.550    -1.227E-21
  55068.621    -1.676E-21
  55068.691    -1.229E-21
  55068.762    -8.804E-22
  55068.832    -7.812E-22
  55068.903    -8.326E-22
  55068.973    -1.084E-21
  55069.044    -1.035E-21
  55069.114    -2.824E-22
  55069.185     1.724E-22
  55069.256     5.789E-22
  55069.326     8.849E-22
  55069.397     5.255E-22
  55069.467     2.186E-22
  55069.538     1.666E-22
  55069.608     6.389E-23
  55069.679    -1.400E-22
  55069.750    -5.450E-22
  55069.820    -1.098E-21
  55069.891    -1.398E-21
  55069.961    -1.350E-21
  55070.032    -1.401E-21
  55070.102    -1.402E-21
  55070.173    -1.054E-21
  55070.244    -8.043E-22
  55070.314    -9.559E-22
  55070.385    -1.007E-21
  55070.455    -5.565E-22
  55070.526    -1.538E-22
  55070.596    -5.370E-23
  55070.667    -2.067E-22
  55070.738    -8.626E-22
  55070.808    -1.214E-21
  55070.879    -7.143E-22
  55070.949    -3.125E-22
  55071.020     1.424E-22
  55071.090     4.978E-22
  55071.161     4.966E-22
  55071.231     6.488E-22
  55071.302     4.943E-22
  55071.373     1.874E-22
  55071.443    -1.686E-23
  55071.514     1.343E-22
  55071.584     4.897E-22
  55071.655     6.930E-22
  55071.725     9.483E-22
  55071.796     6.907E-22
  55071.867     3.830E-22
  55071.937     4.839E-22
  55072.008     5.338E-22
  55072.078     5.838E-22
  55072.149     2.765E-22
  55072.219     2.753E-22
  55072.290     5.803E-22
  55072.361     9.379E-22
  55072.431     1.711E-21
  55072.502     1.970E-21
  55072.572     1.761E-21
  55072.643     1.656E-21
  55072.713     1.862E-21
  55072.784     1.550E-21
  55072.855     1.342E-21
  55072.925     1.496E-21
  55072.996     2.275E-21
  55073.066     3.274E-21
  55073.137     4.609E-21
  55073.207     5.859E-21
  55073.278     6.519E-21
  55073.349     6.962E-21
  55073.419     7.351E-21
  55073.490     7.630E-21
  55073.560     7.797E-21
  55073.631     8.418E-21
  55073.702     8.929E-21
  55073.772     8.871E-21
  55073.843     8.698E-21
  55073.913     8.754E-21
  55073.984     8.696E-21
  55074.054     8.866E-21
  55074.125     8.694E-21
  55074.196     8.579E-21
  55074.266     8.351E-21
  55074.337     8.293E-21
  55074.407     8.974E-21
  55074.478     9.778E-21
  55074.548     1.018E-20
  55074.619     9.660E-21
  55074.690     8.344E-21
  55074.760     7.273E-21
  55074.831     6.549E-21
  55074.901     5.667E-21
  55074.972     4.904E-21
  55075.042     4.524E-21
  55075.113     3.826E-21
  55075.184     3.399E-21
  55075.254     3.238E-21
  55075.325     3.025E-21
  55075.395     2.866E-21
  55075.466     3.076E-21
  55075.536     3.659E-21
  55075.607     3.551E-21
  55075.678     2.651E-21
  55075.748     1.969E-21
  55075.819     1.656E-21
  55075.889     1.189E-21
  55075.960     5.714E-22
  55076.031     2.129E-22
  55076.101     8.372E-24
  55076.172    -2.463E-22
  55076.242     6.059E-24
  55076.313     5.144E-22
  55076.383     7.693E-22
  55076.454     1.128E-21
  55076.525     1.282E-21
  55076.595     1.332E-21
  55076.666     9.702E-22
  55076.736     4.053E-22
  55076.807     2.002E-22
  55076.877    -4.347E-24
  55076.948    -4.107E-22
  55077.019    -2.095E-22
  55077.089     3.995E-22
  55077.160     9.107E-22
  55077.230     1.219E-21
  55077.301     1.321E-21
  55077.372     9.586E-22
  55077.442     3.427E-22
  55077.513    -1.163E-22
  55077.583    -3.706E-22
  55077.654    -2.199E-22
  55077.724    -6.899E-23
  55077.795    -5.759E-22
  55077.866    -5.267E-22
  55077.936     3.346E-22
  55078.007     8.968E-22
  55078.077     1.050E-21
  55078.148     7.918E-22
  55078.219     3.300E-22
  55078.289     2.332E-23
  55078.360     2.257E-22
  55078.430     2.245E-22
  55078.501    -3.095E-23
  55078.571    -3.362E-22
  55078.642    -5.394E-22
  55078.713    -4.901E-22
  55078.783    -6.929E-22
  55078.854    -7.444E-22
  55078.924    -8.963E-22
  55078.995    -9.978E-22
  55079.066    -7.981E-22
  55079.136    -1.000E-21
  55079.207    -1.101E-21
  55079.277    -8.016E-22
  55079.348    -8.530E-22
  55079.418    -1.005E-21
  55079.489    -1.106E-21
  55079.560    -1.157E-21
  55079.630    -7.571E-22
  55079.701    -3.041E-22
  55079.771     4.067E-22
  55079.842     4.566E-22
  55079.913    -5.408E-23
  55079.983    -6.118E-22
  55080.054    -1.365E-21
  55080.124    -1.715E-21
  55080.195    -1.617E-21
  55080.266    -1.419E-21
  55080.336    -1.020E-21
  55080.407    -5.178E-22
  55080.477     2.420E-22
  55080.548     9.066E-22
  55080.618     1.681E-21
  55080.689     1.992E-21
  55080.760     1.367E-21
  55080.830     7.478E-22
  55080.901     3.371E-22
  55080.971    -2.743E-22
  55081.042    -5.787E-22
  55081.113    -3.778E-22
  55081.183    -2.778E-22
  55081.254    -1.268E-22
  55081.324    -4.319E-22
  55081.395    -7.357E-22
  55081.466    -5.857E-22
  55081.536     1.736E-22
  55081.607     6.325E-22
  55081.677     9.395E-22
  55081.748     1.093E-21
  55081.818     9.372E-22
  55081.889     4.742E-22
  55081.960     7.806E-22
  55082.030     1.295E-21
  55082.101     1.674E-21
  55082.171     2.130E-21
  55082.242     2.096E-21
  55082.313     2.114E-21
  55082.383     2.072E-21
  55082.454     2.161E-21
  55082.524     2.390E-21
  55082.595     2.274E-21
  55082.666     1.870E-21
  55082.736     1.532E-21
  55082.807     1.647E-21
  55082.877     1.459E-21
  55082.948     1.326E-21
  55083.019     1.494E-21
  55083.089     2.162E-21
  55083.160     3.476E-21
  55083.230     5.155E-21
  55083.301     6.546E-21
  55083.372     7.229E-21
  55083.442     7.455E-21
  55083.513     7.739E-21
  55083.583     9.123E-21
  55083.654     1.113E-20
  55083.724     1.330E-20
  55083.795     1.570E-20
  55083.866     1.821E-20
  55083.936     2.094E-20
  55084.007     2.368E-20
  55084.077     2.713E-20
  55084.148     2.992E-20
  55084.219     3.189E-20
  55084.289     3.318E-20
  55084.360     3.398E-20
  55084.430     3.422E-20
  55084.501     3.444E-20
  55084.572     3.474E-20
  55084.642     3.494E-20
  55084.713     3.504E-20
  55084.783     3.555E-20
  55084.854     3.535E-20
  55084.925     3.478E-20
  55084.995     3.374E-20
  55085.066     3.176E-20
  55085.136     2.922E-20
  55085.207     2.669E-20
  55085.278     2.441E-20
  55085.348     2.226E-20
  55085.419     2.038E-20
  55085.489     1.852E-20
  55085.560     1.605E-20
  55085.631     1.390E-20
  55085.701     1.193E-20
  55085.772     1.010E-20
  55085.842     8.639E-21
  55085.913     7.595E-21
  55085.984     7.176E-21
  55086.054     6.484E-21
  55086.125     6.086E-21
  55086.195     5.655E-21
  55086.266     4.861E-21
  55086.337     3.652E-21
  55086.407     2.789E-21
  55086.478     2.505E-21
  55086.548     2.217E-21
  55086.619     2.079E-21
  55086.690     2.121E-21
  55086.760     1.801E-21
  55086.831     1.670E-21
  55086.901     1.386E-21
  55086.972     1.379E-21
  55087.043     1.971E-21
  55087.113     2.477E-21
  55087.184     2.800E-21
  55087.254     2.571E-21
  55087.325     2.019E-21
  55087.396     1.345E-21
  55087.466     8.109E-22
  55087.537     5.367E-22
  55087.607     5.921E-22
  55087.678     1.219E-21
  55087.749     1.692E-21
  55087.819     2.014E-21
  55087.890     2.119E-21
  55087.960     1.395E-21
  55088.031     6.883E-22
  55088.102     2.573E-22
  55088.172    -1.299E-22
  55088.243    -8.810E-23
  55088.313     5.443E-22
  55088.384     7.631E-22
  55088.455     8.167E-22
  55088.525     4.654E-22
  55088.596     4.452E-22
  55088.666     7.134E-22
  55088.737     5.905E-22
  55088.808     4.216E-22
  55088.878     2.899E-22
  55088.949    -6.976E-23
  55089.019     3.203E-23
  55089.090    -4.606E-22
  55089.161    -5.053E-22
  55089.231    -1.636E-22
  55089.302     1.732E-22
  55089.372     6.453E-22
  55089.443     5.002E-22
  55089.514     2.263E-22
  55089.584     1.982E-22
  55089.655     7.456E-22
  55089.726     1.413E-21
  55089.796     1.404E-21
  55089.867     1.359E-21
  55089.937     1.039E-21
  55090.008     5.296E-22
  55090.079     3.538E-23
  55090.149    -4.817E-22
  55090.220    -9.782E-22
  55090.290    -8.010E-22
  55090.361    -3.861E-22
  55090.432    -3.863E-23
  55090.502     3.555E-22
  55090.573     8.769E-22
  55090.643     1.395E-21
  55090.714     1.381E-21
  55090.785     8.641E-22
  55090.855     2.010E-22
  55090.926    -2.610E-22
  55090.996    -8.270E-22
  55091.067    -1.140E-21
  55091.138    -1.064E-21
  55091.208    -9.643E-22
  55091.279    -7.812E-22
  55091.349    -2.734E-22
  55091.420    -2.578E-22
  55091.491    -5.510E-22
  55091.561    -2.124E-22
  55091.632    -2.692E-22
  55091.703    -5.536E-22
  55091.773    -6.919E-22
  55091.844    -4.160E-22
  55091.914     1.473E-22
  55091.985     3.463E-22
  55092.056     4.352E-22
  55092.126     3.792E-22
  55092.197     5.901E-22
  55092.267     8.586E-22
  55092.338     6.659E-22
  55092.409     2.993E-22
  55092.479    -2.048E-23
  55092.550    -2.132E-22
  55092.620    -2.038E-22
  55092.691     1.261E-22
  55092.762     7.410E-22
  55092.832     1.353E-21
  55092.903     1.281E-21
  55092.974     7.144E-22
  55093.044     1.316E-22
  55093.115     2.579E-22
  55093.185    -9.334E-23
  55093.256    -4.102E-22
  55093.327    -6.517E-22
  55093.397    -6.808E-22
  55093.468    -3.737E-22
  55093.538    -1.031E-22
  55093.609     4.566E-22
  55093.680     8.225E-22
  55093.750     5.105E-22
  55093.821     3.024E-22
  55093.892    -3.595E-23
  55093.962     2.525E-22
  55094.033     2.755E-22
  55094.103     2.301E-22
  55094.174     4.621E-22
  55094.245     3.761E-22
  55094.315    -1.120E-23
  55094.386    -8.904E-24
  55094.456    -1.929E-22
  55094.527    -6.381E-23
  55094.598    -1.764E-22
  55094.668    -4.834E-22
  55094.739    -2.868E-22
  55094.810    -1.636E-22
  55094.880     3.054E-22
  55094.951     6.451E-22
  55095.021     5.289E-22
  55095.092    -3.188E-22
  55095.163    -9.775E-22
  55095.233    -1.299E-21
  55095.304    -1.308E-21
  55095.374    -5.883E-22
  55095.445     4.281E-22
  55095.516     6.816E-22
  55095.586     5.724E-22
  55095.657     3.212E-22
  55095.728     3.246E-22
  55095.798     7.989E-22
  55095.869     1.086E-21
  55095.939     8.847E-22
  55096.010     7.137E-22
  55096.081     7.558E-23
  55096.151    -6.884E-22
  55096.222    -1.067E-21
  55096.293    -8.812E-22
  55096.363    -9.435E-23
  55096.434     7.071E-22
  55096.504     1.033E-21
  55096.575     8.495E-22
  55096.646     3.038E-22
  55096.716     2.101E-22
  55096.787     2.631E-22
  55096.857     6.062E-22
  55096.928     7.741E-22
  55096.999     4.648E-22
  55097.069     2.897E-22
  55097.140     4.321E-22
  55097.211     4.694E-22
  55097.281     2.986E-22
  55097.352     1.100E-22
  55097.422     1.708E-22
  55097.493     2.781E-23
  55097.564     1.574E-22
  55097.634     5.945E-22
  55097.705     1.138E-21
  55097.776     1.543E-21
  55097.846     1.777E-21
  55097.917     1.648E-21
  55097.987     1.637E-21
  55098.058     1.657E-21
  55098.129     1.996E-21
  55098.199     2.249E-21
  55098.270     1.893E-21
  55098.341     1.418E-21
  55098.411     8.925E-22
  55098.482     3.764E-22
  55098.552    -1.857E-24
  55098.623    -6.862E-22
  55098.694    -1.776E-21
  55098.764    -1.810E-21
  55098.835    -9.941E-22
  55098.906    -2.769E-22
  55098.976    -8.288E-23
  55099.047     3.004E-22
  55099.117     1.495E-22
  55099.188     3.052E-22
  55099.259     5.588E-22
  55099.329     2.313E-22
  55099.400    -2.204E-22
  55099.471    -3.551E-22
  55099.541    -1.644E-22
  55099.612     4.742E-22
  55099.682     6.945E-22
  55099.753     4.178E-22
  55099.824    -2.359E-22
  55099.894    -5.671E-22
  55099.965    -4.607E-22
  55100.036    -5.848E-22
  55100.106    -8.104E-22
  55100.177    -9.325E-22
  55100.247    -8.229E-22
  55100.318    -6.230E-22
  55100.389    -5.974E-22
  55100.459    -1.101E-21
  55100.530    -1.375E-21
  55100.601    -1.443E-21
  55100.671    -7.580E-22
  55100.742     5.296E-23
  55100.812     5.640E-22
  55100.883     4.899E-22
  55100.954     5.090E-23
  55101.024    -5.189E-22
  55101.095    -6.714E-22
  55101.166    -5.511E-22
  55101.236    -6.823E-22
  55101.307    -8.475E-22
  55101.377    -5.122E-22
  55101.448    -4.843E-22
  55101.519    -4.561E-22
  55101.589    -5.530E-22
  55101.660    -6.975E-22
  55101.731    -8.451E-22
  55101.801    -1.138E-21
  55101.872    -1.252E-21
  55101.943    -1.135E-21
  55102.013    -1.064E-21
  55102.084    -1.213E-21
  55102.154    -1.027E-21
  55102.225    -5.320E-22
  55102.296    -1.506E-22
  55102.366     2.569E-22
  55102.437     7.945E-22
  55102.508     1.493E-21
  55102.578     1.892E-21
  55102.649     1.974E-21
  55102.719     1.646E-21
  55102.790     1.087E-21
  55102.861     8.622E-22
  55102.931     8.418E-22
  55103.002     9.347E-22
  55103.073     5.583E-22
  55103.143    -1.020E-22
  55103.214    -5.799E-22
  55103.285    -2.479E-22
  55103.355     3.076E-22
  55103.426     8.764E-22
  55103.496     1.081E-21
  55103.567     3.985E-22
  55103.638    -1.118E-22
  55103.708    -5.034E-22
  55103.779    -9.972E-22
  55103.850    -1.136E-21
  55103.920    -1.173E-21
  55103.991    -1.460E-21
  55104.062    -1.541E-21
  55104.132    -1.096E-21
  55104.203    -9.355E-22
  55104.273    -1.390E-21
  55104.344    -1.232E-21
  55104.415    -1.257E-21
  55104.485    -1.530E-21
  55104.556    -1.501E-21
  55104.627    -1.305E-21
  55104.697    -1.394E-21
  55104.768    -7.293E-22
  55104.839    -2.855E-23
  55104.909     1.051E-22
  55104.980    -2.538E-22
  55105.050    -5.447E-22
  55105.121    -6.753E-22
  55105.192    -6.883E-22
  55105.262    -7.622E-22
  55105.333    -7.636E-22
  55105.404    -8.388E-22
  55105.474    -9.771E-22
  55105.545    -8.974E-22
  55105.616    -6.882E-22
  55105.686    -7.209E-22
  55105.757    -8.092E-22
  55105.827    -1.057E-21
  55105.898    -1.421E-21
  55105.969    -9.808E-22
  55106.039    -1.287E-22
  55106.110     7.758E-22
  55106.181     1.241E-21
  55106.251     1.150E-21
  55106.322     7.421E-22
  55106.393     3.885E-22
  55106.463     3.892E-22
  55106.534     4.374E-22
  55106.604     2.805E-23
  55106.675    -3.003E-22
  55106.746    -3.385E-22
  55106.816    -3.305E-22
  55106.887    -3.025E-22
  55106.958     4.060E-23
  55107.028     1.111E-21
  55107.099     1.901E-21
  55107.170     2.099E-21
  55107.240     1.941E-21
  55107.311     1.204E-21
  55107.382     6.111E-22
  55107.452     1.094E-22
  55107.523    -9.386E-23
  55107.593    -9.558E-23
  55107.664    -5.868E-23
  55107.735    -6.441E-23
  55107.805     2.919E-22
  55107.876     3.866E-22
  55107.947    -1.882E-22
  55108.017    -1.543E-22
  55108.088     3.405E-22
  55108.159     3.812E-22
  55108.229     7.011E-22
  55108.300     7.816E-22
  55108.371     6.002E-22
  55108.441     5.702E-22
  55108.512     4.815E-22
  55108.582     3.177E-22
  55108.653     4.016E-22
  55108.724     4.699E-22
  55108.794     9.018E-22
  55108.865     1.305E-21
  55108.936     1.612E-21
  55109.006     1.033E-21
  55109.077     6.611E-22
  55109.148     8.210E-22
  55109.218     6.911E-22
  55109.289     4.975E-22
  55109.360     2.951E-22
  55109.430     2.846E-22
  55109.501     5.426E-22
  55109.572     6.673E-22
  55109.642     3.298E-22
  55109.713    -5.951E-22
  55109.783    -1.030E-21
  55109.854    -5.426E-22
  55109.925    -2.154E-22
  55109.995    -3.258E-22
  55110.066    -5.359E-23
  55110.137     3.035E-22
  55110.207     6.655E-22
  55110.278     9.230E-22
  55110.349     9.819E-22
  55110.419     1.023E-21
  55110.490     8.813E-22
  55110.561     7.045E-22
  55110.631     2.876E-22
  55110.702     2.295E-22
  55110.773     3.289E-22
  55110.843     3.906E-22
  55110.914     1.549E-22
  55110.984    -2.891E-22
  55111.055    -9.818E-23
  55111.126     1.865E-22
  55111.196     7.470E-22
  55111.267     1.402E-21
  55111.338     2.021E-21
  55111.408     2.043E-21
  55111.479     1.959E-21
  55111.550     2.019E-21
  55111.620     2.030E-21
  55111.691     2.702E-21
  55111.762     3.274E-21
  55111.832     3.662E-21
  55111.903     4.312E-21
  55111.974     4.310E-21
  55112.044     3.911E-21
  55112.115     3.509E-21
  55112.186     2.849E-21
  55112.256     2.333E-21
  55112.327     2.287E-21
  55112.397     2.695E-21
  55112.468     3.439E-21
  55112.539     4.414E-21
  55112.609     5.263E-21
  55112.680     6.181E-21
  55112.751     7.235E-21
  55112.821     8.080E-21
  55112.892     9.003E-21
  55112.963     1.017E-20
  55113.033     1.150E-20
  55113.104     1.326E-20
  55113.175     1.580E-20
  55113.245     1.849E-20
  55113.316     2.121E-20
  55113.387     2.494E-20
  55113.457     2.818E-20
  55113.528     3.043E-20
  55113.599     3.228E-20
  55113.669     3.347E-20
  55113.740     3.461E-20
  55113.811     3.504E-20
  55113.881     3.473E-20
  55113.952     3.481E-20
  55114.023     3.490E-20
  55114.093     3.556E-20
  55114.164     3.579E-20
  55114.234     3.555E-20
  55114.305     3.503E-20
  55114.376     3.369E-20
  55114.446     3.217E-20
  55114.517     3.039E-20
  55114.588     2.911E-20
  55114.658     2.771E-20
  55114.729     2.631E-20
  55114.800     2.419E-20
  55114.870     2.146E-20
  55114.941     1.934E-20
  55115.012     1.734E-20
  55115.082     1.592E-20
  55115.153     1.467E-20
  55115.224     1.370E-20
  55115.294     1.262E-20
  55115.365     1.112E-20
  55115.436     9.952E-21
  55115.506     9.298E-21
  55115.577     8.332E-21
  55115.648     7.453E-21
  55115.718     6.664E-21
  55115.789     5.947E-21
  55115.860     5.437E-21
  55115.930     5.436E-21
  55116.001     5.227E-21
  55116.072     4.878E-21
  55116.142     4.101E-21
  55116.213     3.227E-21
  55116.284     2.975E-21
  55116.354     2.805E-21
  55116.425     2.542E-21
  55116.496     2.100E-21
  55116.566     1.958E-21
  55116.637     1.816E-21
  55116.708     1.665E-21
  55116.778     1.445E-21
  55116.849     1.080E-21
  55116.920     9.409E-22
  55116.990     1.164E-21
  55117.061     1.632E-21
  55117.131     2.316E-21
  55117.202     2.209E-21
  55117.273     2.088E-21
  55117.343     2.118E-21
  55117.414     1.905E-21
  55117.485     2.274E-21
  55117.555     2.968E-21
  55117.626     3.254E-21
  55117.697     2.869E-21
  55117.767     2.039E-21
  55117.838     1.395E-21
  55117.909     9.926E-22
  55117.979     7.679E-22
  55118.050     7.529E-22
  55118.121     7.008E-22
  55118.191     4.612E-22
  55118.262     7.923E-22
  55118.333     9.723E-22
  55118.403     1.209E-21
  55118.474     1.938E-21
  55118.545     2.540E-21
  55118.615     3.252E-21
  55118.686     2.906E-21
  55118.757     2.389E-21
  55118.827     1.853E-21
  55118.898     1.115E-21
  55118.969     8.147E-22
  55119.039     7.373E-22
  55119.110     1.439E-21
  55119.181     2.137E-21
  55119.251     1.910E-21
  55119.322     1.647E-21
  55119.393     1.642E-21
  55119.463     1.469E-21
  55119.534     1.237E-21
  55119.605     1.087E-21
  55119.675     9.018E-22
  55119.746     9.384E-22
  55119.817     7.634E-22
  55119.887     5.600E-22
  55119.958     5.626E-22
  55120.029     1.312E-21
  55120.099     2.155E-21
  55120.170     2.281E-21
  55120.241     2.431E-21
  55120.311     2.498E-21
  55120.382     2.475E-21
  55120.453     2.398E-21
  55120.523     2.487E-21
  55120.594     2.719E-21
  55120.665     2.934E-21
  55120.735     3.216E-21
  55120.806     3.275E-21
  55120.877     3.220E-21
  55120.947     3.118E-21
  55121.018     3.222E-21
  55121.089     4.263E-21
  55121.159     5.309E-21
  55121.230     6.047E-21
  55121.301     6.307E-21
  55121.371     6.351E-21
  55121.442     6.533E-21
  55121.513     6.283E-21
  55121.583     6.486E-21
  55121.654     7.311E-21
  55121.725     8.282E-21
  55121.795     9.061E-21
  55121.866     1.002E-20
  55121.937     1.119E-20
  55122.007     1.292E-20
  55122.078     1.497E-20
  55122.149     1.750E-20
  55122.219     2.047E-20
  55122.290     2.304E-20
  55122.361     2.636E-20
  55122.432     3.154E-20
  55122.502     3.816E-20
  55122.573     4.588E-20
  55122.644     5.030E-20
  55122.714     5.812E-20
  55122.785     6.699E-20
  55122.856     7.598E-20
  55122.926     8.321E-20
  55122.997     9.049E-20
  55123.068     9.650E-20
  55123.138     1.017E-19
  55123.209     1.058E-19
  55123.280     1.078E-19
  55123.350     1.094E-19
  55123.421     1.102E-19
  55123.492     1.090E-19
  55123.562     1.069E-19
  55123.633     1.035E-19
  55123.704     9.913E-20
  55123.774     9.401E-20
  55123.845     8.808E-20
  55123.916     8.139E-20
  55123.986     6.976E-20
  55124.057     6.225E-20
  55124.128     5.566E-20
  55124.198     4.985E-20
  55124.269     4.111E-20
  55124.340     3.560E-20
  55124.410     3.098E-20
  55124.481     2.723E-20
  55124.552     2.406E-20
  55124.622     2.166E-20
  55124.693     1.938E-20
  55124.764     1.757E-20
  55124.834     1.587E-20
  55124.905     1.443E-20
  55124.976     1.269E-20
  55125.046     1.148E-20
  55125.117     1.097E-20
  55125.188     1.060E-20
  55125.259     1.027E-20
  55125.329     9.784E-21
  55125.400     9.147E-21
  55125.471     8.289E-21
  55125.541     7.368E-21
  55125.612     6.876E-21
  55125.683     6.280E-21
  55125.753     5.496E-21
  55125.824     5.187E-21
  55125.895     4.864E-21
  55125.965     4.810E-21
  55126.036     4.809E-21
  55126.107     4.480E-21
  55126.177     3.954E-21
  55126.248     3.591E-21
  55126.319     3.416E-21
  55126.389     3.044E-21
  55126.460     3.070E-21
  55126.531     2.920E-21
  55126.601     2.685E-21
  55126.672     2.392E-21
  55126.743     1.476E-21
  55126.813     1.420E-21
  55126.884     1.969E-21
  55126.955     2.327E-21
  55127.026     2.356E-21
  55127.096     1.940E-21
  55127.167     1.564E-21
  55127.238     1.642E-21
  55127.308     1.908E-21
  55127.379     2.143E-21
  55127.450     2.235E-21
  55127.520     1.999E-21
  55127.591     1.715E-21
  55127.662     1.982E-21
  55127.732     2.338E-21
  55127.803     2.176E-21
  55127.874     1.971E-21
  55127.944     1.532E-21
  55128.015     1.486E-21
  55128.086     1.357E-21
  55128.156     8.573E-22
  55128.227     2.913E-22
  55128.298     1.305E-22
  55128.368     7.946E-22
  55128.439     1.482E-21
  55128.510     1.865E-21
  55128.581     1.810E-21
  55128.651     1.394E-21
  55128.722     1.055E-21
  55128.793     5.712E-22
  55128.863     7.505E-23
  55128.934     7.319E-23
  55129.005     3.497E-22
  55129.075     6.782E-22
  55129.146     1.039E-21
  55129.217     8.385E-22
  55129.287     7.817E-22
  55129.358     6.699E-22
  55129.429     5.116E-22
  55129.499     1.929E-22
  55129.570    -5.557E-23
  55129.641     8.746E-23
  55129.712     3.104E-22
  55129.782     6.034E-22
  55129.853     8.342E-22
  55129.924     6.796E-22
  55129.994     2.313E-22
  55130.065     3.307E-22
  55130.136     8.348E-22
  55130.206     9.230E-22
  55130.277     1.178E-21
  55130.348     1.352E-21
  55130.418     1.476E-21
  55130.489     1.381E-21
  55130.560     1.162E-21
  55130.630     1.079E-21
  55130.701     3.891E-22
  55130.772    -1.406E-22
  55130.843     6.533E-23
  55130.913     9.572E-22
  55130.984     1.682E-21
  55131.055     1.791E-21
  55131.125     1.922E-21
  55131.196     1.898E-21
  55131.267     2.206E-21
  55131.337     2.404E-21
  55131.408     2.417E-21
  55131.479     2.295E-21
  55131.549     2.099E-21
  55131.620     1.538E-21
  55131.691     8.516E-22
  55131.761     6.493E-22
  55131.832     5.513E-22
  55131.903     8.061E-22
  55131.974     1.021E-21
  55132.044     1.145E-21
  55132.115     1.221E-21
  55132.186     1.462E-21
  55132.256     1.871E-21
  55132.327     2.127E-21
  55132.398     1.974E-21
  55132.468     1.188E-21
  55132.539     5.395E-22
  55132.610     4.270E-22
  55132.680     4.865E-22
  55132.751     7.189E-22
  55132.822     1.134E-21
  55132.893     1.837E-21
  55132.963     2.072E-21
  55133.034     2.110E-21
  55133.105     1.814E-21
  55133.175     1.287E-21
  55133.246     8.407E-22
  55133.317     7.558E-22
  55133.387     8.301E-22
  55133.458     1.062E-21
  55133.529     1.053E-21
  55133.600     1.002E-21
  55133.670     5.875E-22
  55133.741    -2.497E-22
  55133.812    -8.561E-22
  55133.882    -3.851E-22
  55133.953     2.203E-22
  55134.024     3.531E-22
  55134.094    -2.603E-23
  55134.165     4.998E-22
  55134.236     1.178E-21
  55134.306     1.594E-21
  55134.377     2.093E-21
  55134.448     2.276E-21
  55134.519     2.442E-21
  55134.589     2.347E-21
  55134.660     2.160E-21
  55134.731     1.885E-21
  55134.801     1.951E-21
  55134.872     1.606E-21
  55134.943     1.012E-21
  55135.013     5.971E-22
  55135.084     1.651E-22
  55135.155    -1.167E-22
  55135.226     8.010E-23
  55135.296     8.515E-22
  55135.367     1.428E-21
  55135.438     2.035E-21
  55135.508     2.122E-21
  55135.579     2.177E-21
  55135.650     2.020E-21
  55135.720     1.715E-21
  55135.791     1.585E-21
  55135.862     1.408E-21
  55135.933     1.769E-21
  55136.003     2.071E-21
  55136.074     1.904E-21
  55136.145     1.507E-21
  55136.215     9.635E-22
  55136.286     6.557E-22
  55136.357     7.595E-22
  55136.427     1.236E-21
  55136.498     1.178E-21
  55136.569     1.359E-21
  55136.640     1.490E-21
  55136.710     1.827E-21
  55136.781     1.955E-21
  55136.852     1.731E-21
  55136.922     1.619E-21
  55136.993     1.492E-21
  55137.064     1.193E-21
  55137.134     9.853E-22
  55137.205     6.325E-22
  55137.276     4.392E-22
  55137.347     6.789E-22
  55137.417     5.428E-22
  55137.488    -1.069E-22
  55137.559    -6.710E-22
  55137.629    -4.572E-22
  55137.700     5.900E-22
  55137.771     1.533E-21
  55137.841     2.032E-21
  55137.912     1.902E-21
  55137.983     1.703E-21
  55138.054     1.725E-21
  55138.124     1.830E-21
  55138.195     1.422E-21
  55138.266     1.095E-21
  55138.336     7.783E-22
  55138.407     7.877E-22
  55138.478     9.791E-22
  55138.548     1.018E-21
  55138.619     6.490E-22
  55138.690     6.828E-22
  55138.761     7.694E-22
  55138.831     9.239E-22
  55138.902     1.531E-21
  55138.973     1.941E-21
  55139.043     2.386E-21
  55139.114     2.703E-21
  55139.185     2.592E-21
  55139.256     2.228E-21
  55139.326     2.151E-21
  55139.397     2.049E-21
  55139.468     1.830E-21
  55139.538     1.631E-21
  55139.609     1.532E-21
  55139.680     1.452E-21
  55139.750     1.564E-21
  55139.821     1.183E-21
  55139.892     8.678E-22
  55139.963     9.673E-22
  55140.033     9.251E-22
  55140.104     9.666E-22
  55140.175     6.831E-22
  55140.245    -1.485E-22
  55140.316    -1.867E-22
  55140.387    -1.268E-22
  55140.458     1.742E-22
  55140.528     3.067E-22
  55140.599     1.424E-23
  55140.670     4.216E-23
  55140.740     2.235E-22
  55140.811     7.219E-22
  55140.882     9.042E-22
  55140.953     9.825E-22
  55141.023     1.179E-21
  55141.094     6.111E-22
  55141.165     7.082E-22
  55141.235     1.377E-21
  55141.306     1.908E-21
  55141.377     1.829E-21
  55141.447     9.597E-22
  55141.518     6.819E-22
  55141.589     9.495E-22
  55141.660     9.678E-22
  55141.730     1.108E-21
  55141.801     1.330E-21
  55141.872     1.187E-21
  55141.942     1.281E-21
  55142.013     6.966E-22
  55142.084     2.587E-22
  55142.155     1.549E-22
  55142.225     2.935E-22
  55142.296     6.221E-22
  55142.367     3.753E-22
  55142.437     7.915E-23
  55142.508     1.104E-22
  55142.579     3.615E-22
  55142.650     9.422E-22
  55142.720     1.699E-21
  55142.791     1.832E-21
  55142.862     1.650E-21
  55142.932     1.751E-21
  55143.003     1.418E-21
  55143.074     1.201E-21
  55143.145     1.167E-21
  55143.215     1.418E-21
  55143.286     1.110E-21
  55143.357     9.392E-22
  55143.427     7.844E-22
  55143.498     7.003E-22
  55143.569     9.608E-22
  55143.640     1.660E-21
  55143.710     2.468E-21
  55143.781     2.350E-21
  55143.852     2.025E-21
  55143.922     1.900E-21
  55143.993     1.889E-21
  55144.064     2.148E-21
  55144.135     2.188E-21
  55144.205     2.275E-21
  55144.276     2.433E-21
  55144.347     2.571E-21
  55144.417     2.451E-21
  55144.488     2.451E-21
  55144.559     2.649E-21
  55144.630     2.864E-21
  55144.700     2.701E-21
  55144.771     2.491E-21
  55144.842     2.621E-21
  55144.912     2.801E-21
  55144.983     2.921E-21
  55145.054     2.830E-21
  55145.125     2.897E-21
  55145.195     2.572E-21
  55145.266     2.170E-21
  55145.337     2.244E-21
  55145.408     2.080E-21
  55145.478     2.527E-21
  55145.549     3.416E-21
  55145.620     4.033E-21
  55145.690     4.393E-21
  55145.761     4.376E-21
  55145.832     4.674E-21
  55145.903     5.071E-21
  55145.973     5.040E-21
  55146.044     4.995E-21
  55146.115     4.910E-21
  55146.185     4.984E-21
  55146.256     5.819E-21
  55146.327     6.603E-21
  55146.398     7.360E-21
  55146.468     8.239E-21
  55146.539     9.230E-21
  55146.610     1.004E-20
  55146.680     1.090E-20
  55146.751     1.185E-20
  55146.822     1.275E-20
  55146.893     1.397E-20
  55146.963     1.566E-20
  55147.034     1.747E-20
  55147.105     1.899E-20
  55147.176     2.066E-20
  55147.246     2.317E-20
  55147.317     2.634E-20
  55147.388     3.074E-20
  55147.458     3.651E-20
  55147.529     4.313E-20
  55147.600     5.080E-20
  55147.671     5.313E-20
  55147.741     6.151E-20
  55147.812     7.028E-20
  55147.883     7.847E-20
  55147.953     8.459E-20
  55148.024     9.230E-20
  55148.095     9.755E-20
  55148.166     1.013E-19
  55148.236     1.030E-19
  55148.307     1.032E-19
  55148.378     1.037E-19
  55148.449     1.034E-19
  55148.519     1.034E-19
  55148.590     1.025E-19
  55148.661     1.017E-19
  55148.731     1.012E-19
  55148.802     9.907E-20
  55148.873     9.542E-20
  55148.944     9.050E-20
  55149.014     8.482E-20
  55149.085     7.900E-20
  55149.156     6.927E-20
  55149.227     6.263E-20
  55149.297     5.640E-20
  55149.368     5.028E-20
  55149.439     4.094E-20
  55149.509     3.618E-20
  55149.580     3.216E-20
  55149.651     2.900E-20
  55149.722     2.665E-20
  55149.792     2.386E-20
  55149.863     2.117E-20
  55149.934     1.850E-20
  55150.005     1.595E-20
  55150.075     1.386E-20
  55150.146     1.319E-20
  55150.217     1.288E-20
  55150.287     1.262E-20
  55150.358     1.192E-20
  55150.429     1.112E-20
  55150.500     9.945E-21
  55150.570     9.078E-21
  55150.641     8.156E-21
  55150.712     7.418E-21
  55150.783     6.793E-21
  55150.853     6.563E-21
  55150.924     6.562E-21
  55150.995     6.837E-21
  55151.065     7.061E-21
  55151.136     7.129E-21
  55151.207     6.841E-21
  55151.278     6.805E-21
  55151.348     6.404E-21
  55151.419     6.260E-21
  55151.490     6.390E-21
  55151.561     6.807E-21
  55151.631     6.888E-21
  55151.702     7.110E-21
  55151.773     7.376E-21
  55151.843     7.327E-21
  55151.914     6.963E-21
  55151.985     6.751E-21
  55152.056     6.567E-21
  55152.126     6.891E-21
  55152.197     6.989E-21
  55152.268     7.061E-21
  55152.339     7.077E-21
  55152.409     6.059E-21
  55152.480     5.967E-21
  55152.551     6.105E-21
  55152.622     6.536E-21
  55152.692     6.960E-21
  55152.763     7.320E-21
  55152.834     6.983E-21
  55152.904     7.129E-21
  55152.975     7.490E-21
  55153.046     7.799E-21
  55153.117     7.770E-21
  55153.187     7.359E-21
  55153.258     7.385E-21
  55153.329     7.527E-21
  55153.400     8.388E-21
  55153.470     9.064E-21
  55153.541     9.631E-21
  55153.612     9.912E-21
  55153.683     9.931E-21
  55153.753     9.906E-21
  55153.824     1.033E-20
  55153.895     1.089E-20
  55153.965     1.175E-20
  55154.036     1.231E-20
  55154.107     1.304E-20
  55154.178     1.386E-20
  55154.248     1.420E-20
  55154.319     1.486E-20
  55154.390     1.562E-20
  55154.461     1.652E-20
  55154.531     1.781E-20
  55154.602     1.953E-20
  55154.673     2.208E-20
  55154.744     2.500E-20
  55154.814     2.812E-20
  55154.885     3.150E-20
  55154.956     3.523E-20
  55155.027     3.882E-20
  55155.097     4.247E-20
  55155.168     4.687E-20
  55155.239     5.081E-20
  55155.309     5.733E-20
  55155.380     6.518E-20
  55155.451     7.522E-20
  55155.522     8.601E-20
  55155.592     1.000E-19
  55155.663     1.156E-19
  55155.734     1.311E-19
  55155.805     1.580E-19
  55155.875     1.761E-19
  55155.946     2.066E-19
  55156.017     2.213E-19
  55156.088     2.322E-19
  55156.158     2.407E-19
  55156.229     2.489E-19
  55156.300     2.555E-19
  55156.371     2.565E-19
  55156.441     2.527E-19
  55156.512     2.461E-19
  55156.583     2.362E-19
  55156.654     2.296E-19
  55156.724     2.182E-19
  55156.795     2.033E-19
  55156.866     1.857E-19
  55156.937     1.595E-19
  55157.007     1.393E-19
  55157.078     1.222E-19
  55157.149     1.065E-19
  55157.219     9.343E-20
  55157.290     8.249E-20
  55157.361     6.808E-20
  55157.432     5.881E-20
  55157.502     5.158E-20
  55157.573     4.304E-20
  55157.644     3.869E-20
  55157.715     3.484E-20
  55157.785     3.184E-20
  55157.856     2.940E-20
  55157.927     2.675E-20
  55157.998     2.421E-20
  55158.068     2.204E-20
  55158.139     2.040E-20
  55158.210     1.950E-20
  55158.281     1.903E-20
  55158.351     1.824E-20
  55158.422     1.746E-20
  55158.493     1.686E-20
  55158.564     1.595E-20
  55158.634     1.534E-20
  55158.705     1.366E-20
  55158.776     1.194E-20
  55158.847     1.115E-20
  55158.917     1.075E-20
  55158.988     1.047E-20
  55159.059     1.038E-20
  55159.130     1.005E-20
  55159.200     9.596E-21
  55159.271     8.692E-21
  55159.342     8.167E-21
  55159.413     8.125E-21
  55159.483     8.052E-21
  55159.554     8.159E-21
  55159.625     8.641E-21
  55159.696     8.681E-21
  55159.766     8.353E-21
  55159.837     7.415E-21
  55159.908     6.549E-21
  55159.979     5.649E-21
  55160.049     4.828E-21
  55160.120     4.659E-21
  55160.191     4.553E-21
  55160.262     4.107E-21
  55160.332     3.912E-21
  55160.403     3.864E-21
  55160.474     3.891E-21
  55160.545     3.844E-21
  55160.615     4.112E-21
  55160.686     4.238E-21
  55160.757     4.191E-21
  55160.828     4.140E-21
  55160.898     3.560E-21
  55160.969     3.150E-21
  55161.040     3.143E-21
  55161.111     3.201E-21
  55161.181     3.441E-21
  55161.252     3.518E-21
  55161.323     3.594E-21
  55161.394     3.746E-21
  55161.464     3.678E-21
  55161.535     3.368E-21
  55161.606     3.166E-21
  55161.677     3.074E-21
  55161.747     3.256E-21
  55161.818     3.472E-21
  55161.889     3.571E-21
  55161.960     3.565E-21
  55162.030     3.576E-21
  55162.101     3.365E-21
  55162.172     2.882E-21
  55162.243     3.120E-21
  55162.313     3.573E-21
  55162.384     3.543E-21
  55162.455     3.549E-21
  55162.526     3.499E-21
  55162.596     3.215E-21
  55162.667     2.978E-21
  55162.738     2.951E-21
  55162.809     2.675E-21
  55162.879     2.392E-21
  55162.950     2.318E-21
  55163.021     2.199E-21
  55163.092     1.602E-21
  55163.162     1.440E-21
  55163.233     1.732E-21
  55163.304     1.951E-21
  55163.375     1.777E-21
  55163.445     2.084E-21
  55163.516     2.711E-21
  55163.587     3.235E-21
  55163.658     3.270E-21
  55163.728     2.711E-21
  55163.799     2.278E-21
  55163.870     2.003E-21
  55163.941     1.806E-21
  55164.011     1.765E-21
  55164.082     1.768E-21
  55164.153     1.763E-21
  55164.224     1.922E-21
  55164.294     2.128E-21
  55164.365     2.117E-21
  55164.436     2.331E-21
  55164.507     2.353E-21
  55164.577     2.554E-21
  55164.648     2.624E-21
  55164.719     2.376E-21
  55164.790     1.855E-21
  55164.860     1.848E-21
  55164.931     2.460E-21
  55165.002     2.868E-21
  55165.073     3.374E-21
  55165.144     3.811E-21
  55165.214     3.974E-21
  55165.285     3.905E-21
  55165.356     3.195E-21
  55165.427     2.288E-21
  55165.497     1.925E-21
  55165.568     1.753E-21
  55165.639     2.118E-21
  55165.710     2.265E-21
  55165.780     2.132E-21
  55165.851     2.255E-21
  55165.922     3.202E-21
  55165.993     3.589E-21
  55166.063     3.659E-21
  55166.134     3.322E-21
  55166.205     2.613E-21
  55166.276     2.512E-21
  55166.346     3.160E-21
  55166.417     3.754E-21
  55166.488     3.667E-21
  55166.559     3.405E-21
  55166.629     3.214E-21
  55166.700     3.139E-21
  55166.771     2.682E-21
  55166.842     2.014E-21
  55166.913     1.414E-21
  55166.983     7.733E-22
  55167.054     3.527E-22
  55167.125     4.789E-22
  55167.196     9.731E-22
  55167.266     1.648E-21
  55167.337     2.194E-21
  55167.408     2.505E-21
  55167.479     2.203E-21
  55167.549     1.683E-21
  55167.620     1.476E-21
  55167.691     1.304E-21
  55167.762     1.379E-21
  55167.832     1.508E-21
  55167.903     1.757E-21
  55167.974     1.784E-21
  55168.045     1.823E-21
  55168.115     1.995E-21
  55168.186     2.121E-21
  55168.257     1.575E-21
  55168.328     1.300E-21
  55168.399     1.486E-21
  55168.469     1.628E-21
  55168.540     1.955E-21
  55168.611     2.531E-21
  55168.682     3.006E-21
  55168.752     2.917E-21
  55168.823     2.468E-21
  55168.894     2.027E-21
  55168.965     1.922E-21
  55169.035     2.446E-21
  55169.106     2.726E-21
  55169.177     2.477E-21
  55169.248     2.876E-21
  55169.319     3.136E-21
  55169.389     3.035E-21
  55169.460     2.648E-21
  55169.531     2.256E-21
  55169.602     2.511E-21
  55169.672     2.671E-21
  55169.743     2.791E-21
  55169.814     2.624E-21
  55169.885     2.121E-21
  55169.955     1.714E-21
  55170.026     1.600E-21
  55170.097     1.733E-21
  55170.168     1.997E-21
  55170.238     2.090E-21
  55170.309     2.584E-21
  55170.380     3.701E-21
  55170.451     4.696E-21
  55170.522     4.661E-21
  55170.592     4.566E-21
  55170.663     4.790E-21
  55170.734     5.155E-21
  55170.805     5.138E-21
  55170.875     4.937E-21
  55170.946     4.763E-21
  55171.017     4.299E-21
  55171.088     4.014E-21
  55171.158     3.812E-21
  55171.229     4.170E-21
  55171.300     4.755E-21
  55171.371     5.296E-21
  55171.442     5.133E-21
  55171.512     5.108E-21
  55171.583     4.917E-21
  55171.654     4.331E-21
  55171.725     4.049E-21
  55171.795     3.753E-21
  55171.866     3.900E-21
  55171.937     4.260E-21
  55172.008     4.776E-21
  55172.079     5.409E-21
  55172.149     5.776E-21
  55172.220     5.769E-21
  55172.291     5.696E-21
  55172.362     5.444E-21
  55172.432     5.555E-21
  55172.503     5.438E-21
  55172.574     4.670E-21
  55172.645     4.506E-21
  55172.715     4.288E-21
  55172.786     4.787E-21
  55172.857     5.453E-21
  55172.928     5.835E-21
  55172.999     5.978E-21
  55173.069     5.942E-21
  55173.140     5.733E-21
  55173.211     5.547E-21
  55173.282     6.132E-21
  55173.352     6.668E-21
  55173.423     6.652E-21
  55173.494     6.747E-21
  55173.565     6.342E-21
  55173.636     6.221E-21
  55173.706     6.510E-21
  55173.777     6.986E-21
  55173.848     7.825E-21
  55173.919     8.369E-21
  55173.989     8.966E-21
  55174.060     9.574E-21
  55174.131     1.043E-20
  55174.202     1.114E-20
  55174.273     1.100E-20
  55174.343     1.077E-20
  55174.414     1.108E-20
  55174.485     1.184E-20
  55174.556     1.248E-20
  55174.626     1.331E-20
  55174.697     1.389E-20
  55174.768     1.452E-20
  55174.839     1.563E-20
  55174.910     1.649E-20
  55174.980     1.767E-20
  55175.051     1.893E-20
  55175.122     2.065E-20
  55175.193     2.229E-20
  55175.263     2.411E-20
  55175.334     2.628E-20
  55175.405     2.899E-20
  55175.476     3.243E-20
  55175.547     3.621E-20
  55175.617     3.931E-20
  55175.688     4.292E-20
  55175.759     4.756E-20
  55175.830     4.967E-20
  55175.900     5.671E-20
  55175.971     6.435E-20
  55176.042     7.393E-20
  55176.113     8.463E-20
  55176.184     9.916E-20
  55176.254     1.145E-19
  55176.325     1.299E-19
  55176.396     1.475E-19
  55176.467     1.701E-19
  55176.537     1.903E-19
  55176.608     2.134E-19
  55176.679     2.256E-19
  55176.750     2.352E-19
  55176.821     2.449E-19
  55176.891     2.528E-19
  55176.962     2.571E-19
  55177.033     2.588E-19
  55177.104     2.566E-19
  55177.174     2.526E-19
  55177.245     2.488E-19
  55177.316     2.428E-19
  55177.387     2.329E-19
  55177.458     2.204E-19
  55177.528     2.042E-19
  55177.599     1.866E-19
  55177.670     1.593E-19
  55177.741     1.414E-19
  55177.812     1.269E-19
  55177.882     1.124E-19
  55177.953     9.488E-20
  55178.024     8.425E-20
  55178.095     7.092E-20
  55178.165     6.302E-20
  55178.236     5.599E-20
  55178.307     4.980E-20
  55178.378     4.284E-20
  55178.449     3.922E-20
  55178.519     3.605E-20
  55178.590     3.342E-20
  55178.661     3.080E-20
  55178.732     2.869E-20
  55178.803     2.736E-20
  55178.873     2.621E-20
  55178.944     2.542E-20
  55179.015     2.487E-20
  55179.086     2.435E-20
  55179.156     2.357E-20
  55179.227     2.263E-20
  55179.298     2.163E-20
  55179.369     2.062E-20
  55179.440     1.979E-20
  55179.510     1.847E-20
  55179.581     1.711E-20
  55179.652     1.646E-20
  55179.723     1.624E-20
  55179.794     1.604E-20
  55179.864     1.611E-20
  55179.935     1.592E-20
  55180.006     1.611E-20
  55180.077     1.643E-20
  55180.147     1.654E-20
  55180.218     1.698E-20
  55180.289     1.748E-20
  55180.360     1.784E-20
  55180.431     1.821E-20
  55180.501     1.910E-20
  55180.572     2.021E-20
  55180.643     2.177E-20
  55180.714     2.268E-20
  55180.785     2.360E-20
  55180.855     2.436E-20
  55180.926     2.410E-20
  55180.997     2.398E-20
  55181.068     2.451E-20
  55181.139     2.586E-20
  55181.209     2.762E-20
  55181.280     2.901E-20
  55181.351     3.100E-20
  55181.422     3.315E-20
  55181.492     3.482E-20
  55181.563     3.649E-20
  55181.634     3.847E-20
  55181.705     4.141E-20
  55181.776     4.424E-20
  55181.846     4.740E-20
  55181.917     5.050E-20
  55181.988     5.590E-20
  55182.059     6.275E-20
  55182.130     7.118E-20
  55182.200     7.996E-20
  55182.271     8.613E-20
  55182.342     9.795E-20
  55182.413     1.113E-19
  55182.484     1.298E-19
  55182.554     1.528E-19
  55182.625     1.813E-19
  55182.696     2.214E-19
  55182.767     2.535E-19
  55182.838     2.853E-19
  55182.908     3.185E-19
  55182.979     3.616E-19
  55183.050     3.934E-19
  55183.121     4.191E-19
  55183.192     4.384E-19
  55183.262     4.513E-19
  55183.333     4.584E-19
  55183.404     4.577E-19
  55183.475     4.490E-19
  55183.545     4.345E-19
  55183.616     4.148E-19
  55183.687     3.904E-19
  55183.758     3.594E-19
  55183.829     3.145E-19
  55183.899     2.823E-19
  55183.970     2.508E-19
  55184.041     2.250E-19
  55184.112     1.808E-19
  55184.183     1.572E-19
  55184.253     1.320E-19
  55184.324     1.153E-19
  55184.395     9.884E-20
  55184.466     8.657E-20
  55184.537     7.633E-20
  55184.607     6.128E-20
  55184.678     5.536E-20
  55184.749     5.047E-20
  55184.820     4.334E-20
  55184.891     4.020E-20
  55184.961     3.742E-20
  55185.032     3.506E-20
  55185.103     3.264E-20
  55185.174     3.010E-20
  55185.245     2.761E-20
  55185.315     2.567E-20
  55185.386     2.396E-20
  55185.457     2.299E-20
  55185.528     2.196E-20
  55185.599     2.096E-20
  55185.669     1.935E-20
  55185.740     1.730E-20
  55185.811     1.605E-20
  55185.882     1.539E-20
  55185.953     1.501E-20
  55186.023     1.474E-20
  55186.094     1.470E-20
  55186.165     1.451E-20
  55186.236     1.334E-20
  55186.307     1.224E-20
  55186.377     1.169E-20
  55186.448     1.099E-20
  55186.519     1.030E-20
  55186.590     9.734E-21
  55186.661     9.421E-21
  55186.731     9.541E-21
  55186.802     9.246E-21
  55186.873     8.718E-21
  55186.944     8.989E-21
  55187.015     9.311E-21
  55187.085     9.321E-21
  55187.156     9.089E-21
  55187.227     8.324E-21
  55187.298     7.966E-21
  55187.369     8.281E-21
  55187.439     8.819E-21
  55187.510     8.993E-21
  55187.581     8.840E-21
  55187.652     8.991E-21
  55187.723     9.215E-21
  55187.793     9.603E-21
  55187.864     9.317E-21
  55187.935     8.769E-21
  55188.006     7.962E-21
  55188.077     7.379E-21
  55188.147     7.142E-21
  55188.218     6.921E-21
  55188.289     6.236E-21
  55188.360     6.250E-21
  55188.431     6.985E-21
  55188.502     7.359E-21
  55188.572     7.619E-21
  55188.643     7.457E-21
  55188.714     7.334E-21
  55188.785     6.769E-21
  55188.856     6.234E-21
  55188.926     6.233E-21
  55188.997     6.441E-21
  55189.068     6.439E-21
  55189.139     6.269E-21
  55189.210     6.361E-21
  55189.280     6.335E-21
  55189.351     6.036E-21
  55189.422     5.587E-21
  55189.493     5.035E-21
  55189.564     4.821E-21
  55189.634     4.769E-21
  55189.705     5.098E-21
  55189.776     5.039E-21
  55189.847     4.550E-21
  55189.918     4.298E-21
  55189.988     4.123E-21
  55190.059     3.959E-21
  55190.130     4.160E-21
  55190.201     4.114E-21
  55190.272     4.363E-21
  55190.342     4.627E-21
  55190.413     4.676E-21
  55190.484     4.538E-21
  55190.555     4.549E-21
  55190.626     4.781E-21
  55190.697     5.389E-21
  55190.767     5.707E-21
  55190.838     5.658E-21
  55190.909     5.368E-21
  55190.980     4.979E-21
  55191.051     4.515E-21
  55191.121     4.036E-21
  55191.192     3.874E-21
  55191.263     3.616E-21
  55191.334     3.500E-21
  55191.405     3.617E-21
  55191.475     3.623E-21
  55191.546     3.790E-21
  55191.617     4.460E-21
  55191.688     4.914E-21
  55191.759     5.608E-21
  55191.830     6.207E-21
  55191.900     6.661E-21
  55191.971     6.708E-21
  55192.042     6.286E-21
  55192.113     5.794E-21
  55192.184     5.674E-21
  55192.254     5.601E-21
  55192.325     5.408E-21
  55192.396     4.956E-21
  55192.467     4.206E-21
  55192.538     3.628E-21
  55192.608     3.347E-21
  55192.679     3.488E-21
  55192.750     3.674E-21
  55192.821     4.222E-21
  55192.892     4.853E-21
  55192.963     5.468E-21
  55193.033     6.391E-21
  55193.104     6.774E-21
  55193.175     6.850E-21
  55193.246     6.558E-21
  55193.317     6.121E-21
  55193.387     6.019E-21
  55193.458     5.742E-21
  55193.529     5.956E-21
  55193.600     6.007E-21
  55193.671     5.889E-21
  55193.741     5.481E-21
  55193.812     4.792E-21
  55193.883     4.430E-21
  55193.954     4.418E-21
  55194.025     5.021E-21
  55194.096     5.970E-21
  55194.166     6.540E-21
  55194.237     6.898E-21
  55194.308     7.145E-21
  55194.379     7.389E-21
  55194.450     7.382E-21
  55194.520     7.307E-21
  55194.591     6.954E-21
  55194.662     7.071E-21
  55194.733     7.602E-21
  55194.804     8.248E-21
  55194.875     8.353E-21
  55194.945     8.330E-21
  55195.016     8.984E-21
  55195.087     9.356E-21
  55195.158     1.036E-20
  55195.229     1.141E-20
  55195.299     1.180E-20
  55195.370     1.162E-20
  55195.441     1.094E-20
  55195.512     1.062E-20
  55195.583     1.045E-20
  55195.654     1.087E-20
  55195.724     1.134E-20
  55195.795     1.181E-20
  55195.866     1.284E-20
  55195.937     1.379E-20
  55196.008     1.462E-20
  55196.078     1.589E-20
  55196.149     1.720E-20
  55196.220     1.792E-20
  55196.291     1.831E-20
  55196.362     1.878E-20
  55196.433     1.937E-20
  55196.503     1.995E-20
  55196.574     2.031E-20
  55196.645     2.034E-20
  55196.716     2.014E-20
  55196.787     1.964E-20
  55196.858     1.926E-20
  55196.928     1.925E-20
  55196.999     1.950E-20
  55197.070     2.014E-20
  55197.141     2.142E-20
  55197.212     2.197E-20
  55197.282     2.240E-20
  55197.353     2.299E-20
  55197.424     2.337E-20
  55197.495     2.453E-20
  55197.566     2.604E-20
  55197.637     2.780E-20
  55197.707     2.986E-20
  55197.778     3.216E-20
  55197.849     3.495E-20
  55197.920     3.791E-20
  55197.991     4.072E-20
  55198.062     4.401E-20
  55198.132     4.821E-20
  55198.203     4.929E-20
  55198.274     5.400E-20
  55198.345     5.915E-20
  55198.416     6.421E-20
  55198.486     6.991E-20
  55198.557     8.010E-20
  55198.628     9.065E-20
  55198.699     1.131E-19
  55198.770     1.297E-19
  55198.841     1.543E-19
  55198.911     1.891E-19
  55198.982     2.276E-19
  55199.053     2.617E-19
  55199.124     2.965E-19
  55199.195     3.305E-19
  55199.266     3.814E-19
  55199.336     4.109E-19
  55199.407     4.360E-19
  55199.478     4.551E-19
  55199.549     4.702E-19
  55199.620     4.777E-19
  55199.691     4.818E-19
  55199.761     4.805E-19
  55199.832     4.718E-19
  55199.903     4.564E-19
  55199.974     4.340E-19
  55200.045     4.079E-19
  55200.115     3.763E-19
  55200.186     3.418E-19
  55200.257     3.091E-19
  55200.328     2.779E-19
  55200.399     2.482E-19
  55200.470     2.265E-19
  55200.540     2.007E-19
  55200.611     1.770E-19
  55200.682     1.496E-19
  55200.753     1.283E-19
  55200.824     1.155E-19
  55200.895     1.033E-19
  55200.965     9.275E-20
  55201.036     8.447E-20
  55201.107     7.748E-20
  55201.178     7.194E-20
  55201.249     6.657E-20
  55201.320     6.187E-20
  55201.390     5.877E-20
  55201.461     5.611E-20
  55201.532     5.399E-20
  55201.603     5.291E-20
  55201.674     5.260E-20
  55201.745     5.195E-20
  55201.815     5.088E-20
  55201.886     5.000E-20
  55201.957     4.967E-20
  55202.028     5.001E-20
  55202.099     5.078E-20
  55202.170     5.105E-20
  55202.240     5.088E-20
  55202.311     5.060E-20
  55202.382     5.039E-20
  55202.453     4.998E-20
  55202.524     4.919E-20
  55202.595     4.912E-20
  55202.665     5.058E-20
  55202.736     5.222E-20
  55202.807     5.413E-20
  55202.878     5.642E-20
  55202.949     5.911E-20
  55203.020     6.343E-20
  55203.090     6.820E-20
  55203.161     7.325E-20
  55203.232     8.033E-20
  55203.303     8.808E-20
  55203.374     1.049E-19
  55203.445     1.183E-19
  55203.515     1.334E-19
  55203.586     1.506E-19
  55203.657     1.823E-19
  55203.728     2.198E-19
  55203.799     2.560E-19
  55203.870     2.960E-19
  55203.940     3.391E-19
  55204.011     4.052E-19
  55204.082     4.504E-19
  55204.153     4.906E-19
  55204.224     5.274E-19
  55204.295     5.576E-19
  55204.365     5.992E-19
  55204.436     6.107E-19
  55204.507     6.120E-19
  55204.578     6.013E-19
  55204.649     5.782E-19
  55204.720     5.482E-19
  55204.790     5.163E-19
  55204.861     4.792E-19
  55204.932     4.383E-19
  55205.003     3.987E-19
  55205.074     3.578E-19
  55205.145     3.102E-19
  55205.216     2.737E-19
  55205.286     2.399E-19
  55205.357     2.074E-19
  55205.428     1.811E-19
  55205.499     1.533E-19
  55205.570     1.356E-19
  55205.641     1.201E-19
  55205.711     1.096E-19
  55205.782     9.909E-20
  55205.853     9.052E-20
  55205.924     8.224E-20
  55205.995     7.206E-20
  55206.066     6.737E-20
  55206.136     6.333E-20
  55206.207     6.005E-20
  55206.278     5.753E-20
  55206.349     5.518E-20
  55206.420     5.224E-20
  55206.491     4.940E-20
  55206.561     4.929E-20
  55206.632     4.716E-20
  55206.703     4.471E-20
  55206.774     4.205E-20
  55206.845     3.979E-20
  55206.916     3.761E-20
  55206.987     3.475E-20
  55207.057     3.291E-20
  55207.128     3.110E-20
  55207.199     2.870E-20
  55207.270     2.648E-20
  55207.341     2.476E-20
  55207.412     2.320E-20
  55207.482     2.164E-20
  55207.553     2.023E-20
  55207.624     1.906E-20
  55207.695     1.791E-20
  55207.766     1.715E-20
  55207.837     1.628E-20
  55207.908     1.488E-20
  55207.978     1.360E-20
  55208.049     1.287E-20
  55208.120     1.224E-20
  55208.191     1.203E-20
  55208.262     1.192E-20
  55208.333     1.219E-20
  55208.403     1.239E-20
  55208.474     1.221E-20
  55208.545     1.216E-20
  55208.616     1.197E-20
  55208.687     1.212E-20
  55208.758     1.233E-20
  55208.829     1.228E-20
  55208.899     1.238E-20
  55208.970     1.252E-20
  55209.041     1.204E-20
  55209.112     1.133E-20
  55209.183     1.042E-20
  55209.254     1.006E-20
  55209.324     9.949E-21
  55209.395     9.879E-21
  55209.466     9.718E-21
  55209.537     9.743E-21
  55209.608     9.428E-21
  55209.679     9.271E-21
  55209.750     9.365E-21
  55209.820     1.021E-20
  55209.891     1.109E-20
  55209.962     1.164E-20
  55210.033     1.164E-20
  55210.104     1.138E-20
  55210.175     1.114E-20
  55210.245     1.102E-20
  55210.316     1.115E-20
  55210.387     1.105E-20
  55210.458     1.100E-20
  55210.529     1.106E-20
  55210.600     1.112E-20
  55210.671     1.088E-20
  55210.741     1.040E-20
  55210.812     1.005E-20
  55210.883     9.594E-21
  55210.954     9.323E-21
  55211.025     9.678E-21
  55211.096     9.612E-21
  55211.167     9.446E-21
  55211.237     9.985E-21
  55211.308     1.028E-20
  55211.379     1.042E-20
  55211.450     1.102E-20
  55211.521     1.134E-20
  55211.592     1.172E-20
  55211.662     1.186E-20
  55211.733     1.193E-20
  55211.804     1.142E-20
  55211.875     1.131E-20
  55211.946     1.176E-20
  55212.017     1.201E-20
  55212.088     1.235E-20
  55212.158     1.250E-20
  55212.229     1.276E-20
  55212.300     1.339E-20
  55212.371     1.384E-20
  55212.442     1.415E-20
  55212.513     1.453E-20
  55212.584     1.471E-20
  55212.654     1.494E-20
  55212.725     1.527E-20
  55212.796     1.574E-20
  55212.867     1.641E-20
  55212.938     1.739E-20
  55213.009     1.733E-20
  55213.080     1.703E-20
  55213.150     1.700E-20
  55213.221     1.709E-20
  55213.292     1.799E-20
  55213.363     1.906E-20
  55213.434     2.018E-20
  55213.505     2.124E-20
  55213.576     2.212E-20
  55213.646     2.281E-20
  55213.717     2.362E-20
  55213.788     2.434E-20
  55213.859     2.515E-20
  55213.930     2.669E-20
  55214.001     2.840E-20
  55214.072     3.023E-20
  55214.142     3.214E-20
  55214.213     3.396E-20
  55214.284     3.632E-20
  55214.355     3.913E-20
  55214.426     4.241E-20
  55214.497     4.621E-20
  55214.568     4.989E-20
  55214.638     5.005E-20
  55214.709     5.417E-20
  55214.780     5.790E-20
  55214.851     6.191E-20
  55214.922     6.731E-20
  55214.993     7.347E-20
  55215.064     8.067E-20
  55215.134     8.760E-20
  55215.205     9.397E-20
  55215.276     1.013E-19
  55215.347     1.136E-19
  55215.418     1.262E-19
  55215.489     1.411E-19
  55215.560     1.691E-19
  55215.630     2.102E-19
  55215.701     2.395E-19
  55215.772     2.732E-19
  55215.843     3.113E-19
  55215.914     3.555E-19
  55215.985     4.296E-19
  55216.056     4.841E-19
  55216.126     5.376E-19
  55216.197     5.893E-19
  55216.268     6.661E-19
  55216.339     6.937E-19
  55216.410     7.137E-19
  55216.481     7.248E-19
  55216.552     7.296E-19
  55216.622     7.258E-19
  55216.693     7.131E-19
  55216.764     6.914E-19
  55216.835     6.647E-19
  55216.906     6.326E-19
  55216.977     5.924E-19
  55217.048     5.485E-19
  55217.118     5.077E-19
  55217.189     4.642E-19
  55217.260     4.206E-19
  55217.331     3.794E-19
  55217.402     3.392E-19
  55217.473     2.986E-19
  55217.544     2.667E-19
  55217.615     2.381E-19
  55217.685     2.156E-19
  55217.756     1.953E-19
  55217.827     1.790E-19
  55217.898     1.582E-19
  55217.969     1.423E-19
  55218.040     1.332E-19
  55218.111     1.259E-19
  55218.181     1.191E-19
  55218.252     1.133E-19
  55218.323     1.106E-19
  55218.394     1.097E-19
  55218.465     1.095E-19
  55218.536     1.102E-19
  55218.607     1.152E-19
  55218.678     1.186E-19
  55218.748     1.240E-19
  55218.819     1.321E-19
  55218.890     1.408E-19
  55218.961     1.532E-19
  55219.032     1.705E-19
  55219.103     1.922E-19
  55219.174     2.286E-19
  55219.244     2.635E-19
  55219.315     3.005E-19
  55219.386     3.379E-19
  55219.457     3.978E-19
  55219.528     4.324E-19
  55219.599     4.620E-19
  55219.670     4.845E-19
  55219.741     4.999E-19
  55219.811     5.085E-19
  55219.882     5.065E-19
  55219.953     4.972E-19
  55220.024     4.815E-19
  55220.095     4.657E-19
  55220.166     4.482E-19
  55220.237     4.278E-19
  55220.307     4.062E-19
  55220.378     3.831E-19
  55220.449     3.595E-19
  55220.520     3.351E-19
  55220.591     3.132E-19
  55220.662     2.890E-19
  55220.733     2.673E-19
  55220.804     2.459E-19
  55220.874     2.342E-19
  55220.945     2.125E-19
  55221.016     1.892E-19
  55221.087     1.587E-19
  55221.158     1.425E-19
  55221.229     1.268E-19
  55221.300     1.152E-19
  55221.371     1.035E-19
  55221.441     9.473E-20
  55221.512     8.752E-20
  55221.583     8.179E-20
  55221.654     7.751E-20
  55221.725     7.560E-20
  55221.796     7.495E-20
  55221.867     7.604E-20
  55221.938     7.674E-20
  55222.008     7.735E-20
  55222.079     7.777E-20
  55222.150     7.725E-20
  55222.221     7.541E-20
  55222.292     7.236E-20
  55222.363     6.848E-20
  55222.434     6.436E-20
  55222.504     6.008E-20
  55222.575     5.607E-20
  55222.646     5.184E-20
  55222.717     4.763E-20
  55222.788     3.935E-20
  55222.859     3.716E-20
  55222.930     3.505E-20
  55223.001     3.300E-20
  55223.071     3.139E-20
  55223.142     3.028E-20
  55223.213     2.916E-20
  55223.284     2.792E-20
  55223.355     2.694E-20
  55223.426     2.615E-20
  55223.497     2.508E-20
  55223.568     2.490E-20
  55223.638     2.488E-20
  55223.709     2.449E-20
  55223.780     2.419E-20
  55223.851     2.409E-20
  55223.922     2.406E-20
  55223.993     2.385E-20
  55224.064     2.355E-20
  55224.135     2.380E-20
  55224.206     2.447E-20
  55224.276     2.528E-20
  55224.347     2.580E-20
  55224.418     2.574E-20
  55224.489     2.560E-20
  55224.560     2.547E-20
  55224.631     2.538E-20
  55224.702     2.607E-20
  55224.773     2.735E-20
  55224.843     2.812E-20
  55224.914     2.901E-20
  55224.985     3.007E-20
  55225.056     3.118E-20
  55225.127     3.252E-20
  55225.198     3.377E-20
  55225.269     3.565E-20
  55225.340     3.839E-20
  55225.410     4.078E-20
  55225.481     4.373E-20
  55225.552     4.774E-20
  55225.623     5.044E-20
  55225.694     5.590E-20
  55225.765     6.215E-20
  55225.836     6.883E-20
  55225.907     7.480E-20
  55225.977     8.356E-20
  55226.048     8.969E-20
  55226.119     9.565E-20
  55226.190     1.019E-19
  55226.261     1.080E-19
  55226.332     1.151E-19
  55226.403     1.213E-19
  55226.474     1.285E-19
  55226.545     1.374E-19
  55226.615     1.517E-19
  55226.686     1.707E-19
  55226.757     2.017E-19
  55226.828     2.269E-19
  55226.899     2.555E-19
  55226.970     2.909E-19
  55227.041     3.319E-19
  55227.112     4.009E-19
  55227.182     4.528E-19
  55227.253     5.055E-19
  55227.324     5.533E-19
  55227.395     6.177E-19
  55227.466     6.530E-19
  55227.537     6.802E-19
  55227.608     7.027E-19
  55227.679     7.171E-19
  55227.750     7.232E-19
  55227.820     7.228E-19
  55227.891     7.157E-19
  55227.962     7.018E-19
  55228.033     6.820E-19
  55228.104     6.558E-19
  55228.175     6.242E-19
  55228.246     5.866E-19
  55228.317     5.495E-19
  55228.388     5.093E-19
  55228.458     4.724E-19
  55228.529     4.451E-19
  55228.600     4.230E-19
  55228.671     4.043E-19
  55228.742     3.893E-19
  55228.813     3.754E-19
  55228.884     3.581E-19
  55228.955     3.411E-19
  55229.025     3.236E-19
  55229.096     3.067E-19
  55229.167     2.841E-19
  55229.238     2.600E-19
  55229.309     2.336E-19
  55229.380     2.146E-19
  55229.451     1.938E-19
  55229.522     1.763E-19
  55229.593     1.569E-19
  55229.663     1.439E-19
  55229.734     1.317E-19
  55229.805     1.209E-19
  55229.876     1.132E-19
  55229.947     1.078E-19
  55230.018     1.035E-19
  55230.089     9.909E-20
  55230.160     9.629E-20
  55230.231     9.593E-20
  55230.301     9.716E-20
  55230.372     9.976E-20
  55230.443     1.036E-19
  55230.514     1.095E-19
  55230.585     1.184E-19
  55230.656     1.284E-19
  55230.727     1.414E-19
  55230.798     1.574E-19
  55230.869     1.734E-19
  55230.939     1.911E-19
  55231.010     2.074E-19
  55231.081     2.232E-19
  55231.152     2.345E-19
  55231.223     2.439E-19
  55231.294     2.505E-19
  55231.365     2.547E-19
  55231.436     2.538E-19
  55231.507     2.495E-19
  55231.578     2.451E-19
  55231.648     2.422E-19
  55231.719     2.421E-19
  55231.790     2.436E-19
  55231.861     2.480E-19
  55231.932     2.565E-19
  55232.003     2.691E-19
  55232.074     2.878E-19
  55232.145     3.111E-19
  55232.216     3.381E-19
  55232.286     3.807E-19
  55232.357     4.037E-19
  55232.428     4.195E-19
  55232.499     4.245E-19
  55232.570     4.207E-19
  55232.641     4.133E-19
  55232.712     4.005E-19
  55232.783     3.821E-19
  55232.854     3.606E-19
  55232.924     3.360E-19
  55232.995     3.087E-19
  55233.066     2.784E-19
  55233.137     2.485E-19
  55233.208     2.291E-19
  55233.279     2.015E-19
  55233.350     1.686E-19
  55233.421     1.500E-19
  55233.492     1.289E-19
  55233.563     1.140E-19
  55233.633     9.974E-20
  55233.704     9.027E-20
  55233.775     8.157E-20
  55233.846     7.454E-20
  55233.917     6.975E-20
  55233.988     6.547E-20
  55234.059     6.241E-20
  55234.130     6.037E-20
  55234.201     5.867E-20
  55234.272     5.800E-20
  55234.342     5.759E-20
  55234.413     5.833E-20
  55234.484     6.001E-20
  55234.555     6.262E-20
  55234.626     6.613E-20
  55234.697     6.909E-20
  55234.768     7.110E-20
  55234.839     7.106E-20
  55234.910     6.975E-20
  55234.980     6.832E-20
  55235.051     6.673E-20
  55235.122     6.486E-20
  55235.193     6.139E-20
  55235.264     5.758E-20
  55235.335     5.414E-20
  55235.406     5.101E-20
  55235.477     4.792E-20
  55235.548     4.251E-20
  55235.619     3.835E-20
  55235.689     3.499E-20
  55235.760     3.204E-20
  55235.831     2.959E-20
  55235.902     2.722E-20
  55235.973     2.528E-20
  55236.044     2.342E-20
  55236.115     2.155E-20
  55236.186     1.944E-20
  55236.257     1.755E-20
  55236.328     1.609E-20
  55236.399     1.498E-20
  55236.469     1.415E-20
  55236.540     1.359E-20
  55236.611     1.346E-20
  55236.682     1.333E-20
  55236.753     1.296E-20
  55236.824     1.219E-20
  55236.895     1.142E-20
  55236.966     1.076E-20
  55237.037     1.008E-20
  55237.108     9.980E-21
  55237.178     1.009E-20
  55237.249     9.622E-21
  55237.320     9.093E-21
  55237.391     8.963E-21
  55237.462     8.823E-21
  55237.533     8.451E-21
  55237.604     8.149E-21
  55237.675     7.975E-21
  55237.746     7.758E-21
  55237.817     7.636E-21
  55237.887     7.774E-21
  55237.958     8.084E-21
  55238.029     8.239E-21
  55238.100     7.993E-21
  55238.171     7.681E-21
  55238.242     7.777E-21
  55238.313     7.718E-21
  55238.384     7.845E-21
  55238.455     7.912E-21
  55238.526     8.225E-21
  55238.597     8.535E-21
  55238.667     9.319E-21
  55238.738     1.017E-20
  55238.809     1.028E-20
  55238.880     9.481E-21
  55238.951     8.629E-21
  55239.022     7.894E-21
  55239.093     8.074E-21
  55239.164     8.377E-21
  55239.235     8.771E-21
  55239.306     8.874E-21
  55239.377     8.532E-21
  55239.447     8.067E-21
  55239.518     7.683E-21
  55239.589     7.727E-21
  55239.660     7.841E-21
  55239.731     8.014E-21
  55239.802     8.064E-21
  55239.873     7.982E-21
  55239.944     7.696E-21
  55240.015     7.977E-21
  55240.086     8.257E-21
  55240.157     8.637E-21
  55240.227     8.812E-21
  55240.298     9.210E-21
  55240.369     9.441E-21
  55240.440     9.404E-21
  55240.511     9.389E-21
  55240.582     8.871E-21
  55240.653     7.937E-21
  55240.724     7.355E-21
  55240.795     7.498E-21
  55240.866     7.556E-21
  55240.937     7.296E-21
  55241.007     7.100E-21
  55241.078     6.577E-21
  55241.149     6.651E-21
  55241.220     6.399E-21
  55241.291     5.656E-21
  55241.362     4.987E-21
  55241.433     4.421E-21
  55241.504     3.843E-21
  55241.575     3.823E-21
  55241.646     3.624E-21
  55241.717     3.237E-21
  55241.787     3.261E-21
  55241.858     3.366E-21
  55241.929     3.213E-21
  55242.000     2.909E-21
  55242.071     2.979E-21
  55242.142     3.197E-21
  55242.213     2.932E-21
  55242.284     2.520E-21
  55242.355     2.145E-21
  55242.426     1.843E-21
  55242.497     1.475E-21
  55242.568     2.263E-21
  55242.638     3.458E-21
  55242.709     3.807E-21
  55242.780     3.964E-21
  55242.851     3.723E-21
  55242.922     3.701E-21
  55242.993     4.641E-21
  55243.064     5.231E-21
  55243.135     4.986E-21
  55243.206     4.675E-21
  55243.277     4.716E-21
  55243.348     4.704E-21
  55243.418     4.457E-21
  55243.489     4.015E-21
  55243.560     3.622E-21
  55243.631     3.470E-21
  55243.702     3.555E-21
  55243.773     3.693E-21
  55243.844     3.992E-21
  55243.915     3.780E-21
  55243.986     3.449E-21
  55244.057     3.000E-21
  55244.128     3.094E-21
  55244.199     4.019E-21
  55244.269     4.987E-21
  55244.340     5.975E-21
  55244.411     6.336E-21
  55244.482     6.190E-21
  55244.553     5.962E-21
  55244.624     5.605E-21
  55244.695     5.878E-21
  55244.766     5.689E-21
  55244.837     5.396E-21
  55244.908     5.048E-21
  55244.979     4.848E-21
  55245.050     4.760E-21
  55245.121     4.701E-21
  55245.191     4.858E-21
  55245.262     4.969E-21
  55245.333     4.958E-21
  55245.404     4.758E-21
  55245.475     4.143E-21
  55245.546     3.735E-21
  55245.617     3.584E-21
  55245.688     3.892E-21
  55245.759     3.800E-21
  55245.830     2.998E-21
  55245.901     2.402E-21
  55245.972     1.692E-21
  55246.042     1.363E-21
  55246.113     1.835E-21
  55246.184     2.533E-21
  55246.255     2.809E-21
  55246.326     2.977E-21
  55246.397     2.979E-21
  55246.468     2.923E-21
  55246.539     3.149E-21
  55246.610     2.878E-21
  55246.681     3.025E-21
  55246.752     3.118E-21
  55246.823     3.173E-21
  55246.894     3.250E-21
  55246.964     3.495E-21
  55247.035     3.728E-21
  55247.106     3.554E-21
  55247.177     3.441E-21
  55247.248     3.405E-21
  55247.319     3.029E-21
  55247.390     2.342E-21
  55247.461     1.733E-21
  55247.532     1.771E-21
  55247.603     1.818E-21
  55247.674     2.130E-21
  55247.745     2.035E-21
  55247.816     2.093E-21
  55247.886     2.589E-21
  55247.957     2.682E-21
  55248.028     2.851E-21
  55248.099     2.850E-21
  55248.170     3.158E-21
  55248.241     4.282E-21
  55248.312     4.404E-21
  55248.383     4.058E-21
  55248.454     3.688E-21
  55248.525     3.199E-21
  55248.596     2.947E-21
  55248.667     2.270E-21
  55248.738     2.042E-21
  55248.809     2.134E-21
  55248.879     2.505E-21
  55248.950     3.003E-21
  55249.021     3.315E-21
  55249.092     3.731E-21
  55249.163     4.214E-21
  55249.234     4.592E-21
  55249.305     4.979E-21
  55249.376     5.079E-21
  55249.447     5.170E-21
  55249.518     5.370E-21
  55249.589     5.145E-21
  55249.660     4.989E-21
  55249.731     4.696E-21
  55249.802     4.426E-21
  55249.872     4.197E-21
  55249.943     4.471E-21
  55250.014     4.870E-21
  55250.085     4.637E-21
  55250.156     4.800E-21
  55250.227     4.739E-21
  55250.298     4.526E-21
  55250.369     3.749E-21
  55250.440     3.451E-21
  55250.511     3.238E-21
  55250.582     3.758E-21
  55250.653     3.968E-21
  55250.724     3.725E-21
  55250.795     3.012E-21
  55250.865     2.349E-21
  55250.936     1.796E-21
  55251.007     1.509E-21
  55251.078     1.494E-21
  55251.149     1.051E-21
  55251.220     9.943E-22
  55251.291     9.322E-22
  55251.362     8.936E-22
  55251.433     7.642E-22
  55251.504     1.447E-21
  55251.575     1.956E-21
  55251.646     2.483E-21
  55251.717     2.898E-21
  55251.788     2.698E-21
  55251.858     2.646E-21
  55251.929     3.089E-21
  55252.000     2.930E-21
  55252.071     2.328E-21
  55252.142     2.121E-21
  55252.213     1.883E-21
  55252.284     1.325E-21
  55252.355     9.133E-22
  55252.426     6.345E-22
  55252.497     1.103E-21
  55252.568     1.634E-21
  55252.639     1.452E-21
  55252.710     1.383E-21
  55252.781     8.213E-22
  55252.852     4.685E-22
  55252.923     1.058E-21
  55252.993     2.114E-21
  55253.064     2.579E-21
  55253.135     2.396E-21
  55253.206     2.018E-21
  55253.277     1.787E-21
  55253.348     1.842E-21
  55253.419     2.003E-21
  55253.490     2.111E-21
  55253.561     2.134E-21
  55253.632     1.985E-21
  55253.703     1.352E-21
  55253.774     1.157E-21
  55253.845     1.678E-21
  55253.916     2.557E-21
  55253.987     3.412E-21
  55254.057     3.996E-21
  55254.128     4.392E-21
  55254.199     4.779E-21
  55254.270     4.889E-21
  55254.341     5.007E-21
  55254.412     4.384E-21
  55254.483     3.696E-21
  55254.554     3.477E-21
  55254.625     3.644E-21
  55254.696     3.772E-21
  55254.767     4.118E-21
  55254.838     4.247E-21
  55254.909     4.620E-21
  55254.980     4.900E-21
  55255.051     4.722E-21
  55255.122     4.755E-21
  55255.193     4.834E-21
  55255.263     5.149E-21
  55255.334     5.029E-21
  55255.405     4.462E-21
  55255.476     4.354E-21
  55255.547     4.198E-21
  55255.618     3.937E-21
  55255.689     3.835E-21
  55255.760     3.712E-21
  55255.831     3.019E-21
  55255.902     1.945E-21
  55255.973     1.258E-21
  55256.044     9.434E-22
  55256.115     9.611E-22
  55256.186     1.206E-21
  55256.257     1.337E-21
  55256.328     1.483E-21
  55256.399     1.192E-21
  55256.469     1.486E-21
  55256.540     1.644E-21
  55256.611     1.811E-21
  55256.682     2.172E-21
  55256.753     2.794E-21
  55256.824     3.294E-21
  55256.895     3.553E-21
  55256.966     3.387E-21
  55257.037     2.869E-21
  55257.108     2.472E-21
  55257.179     2.345E-21
  55257.250     2.423E-21
  55257.321     2.471E-21
  55257.392     2.299E-21
  55257.463     1.962E-21
  55257.534     2.237E-21
  55257.605     2.408E-21
  55257.675     2.260E-21
  55257.746     2.174E-21
  55257.817     2.069E-21
  55257.888     1.615E-21
  55257.959     1.681E-21
  55258.030     1.741E-21
  55258.101     1.700E-21
  55258.172     1.839E-21
  55258.243     1.731E-21
  55258.314     1.544E-21
  55258.385     1.733E-21
  55258.456     1.906E-21
  55258.527     2.285E-21
  55258.598     2.515E-21
  55258.669     2.509E-21
  55258.740     2.789E-21
  55258.811     2.907E-21
  55258.882     2.485E-21
  55258.953     1.791E-21
  55259.023     1.488E-21
  55259.094     1.804E-21
  55259.165     2.090E-21
  55259.236     2.246E-21
  55259.307     2.145E-21
  55259.378     2.242E-21
  55259.449     2.361E-21
  55259.520     3.025E-21
  55259.591     3.524E-21
  55259.662     3.809E-21
  55259.733     3.928E-21
  55259.804     3.900E-21
  55259.875     3.390E-21
  55259.946     2.701E-21
  55260.017     2.163E-21
  55260.088     2.104E-21
  55260.159     2.344E-21
  55260.230     2.793E-21
  55260.301     2.939E-21
  55260.371     2.805E-21
  55260.442     2.707E-21
  55260.513     2.333E-21
  55260.584     1.976E-21
  55260.655     2.180E-21
  55260.726     2.145E-21
  55260.797     2.126E-21
  55260.868     1.979E-21
  55260.939     1.708E-21
  55261.010     1.837E-21
  55261.081     1.717E-21
  55261.152     1.228E-21
  55261.223     9.572E-22
  55261.294     1.110E-21
  55261.365     1.527E-21
  55261.436     1.714E-21
  55261.507     1.939E-21
  55261.578     2.609E-21
  55261.649     2.581E-21
  55261.720     2.112E-21
  55261.791     1.578E-21
  55261.861     1.282E-21
  55261.932     1.624E-21
  55262.003     2.530E-21
  55262.074     3.112E-21
  55262.145     2.875E-21
  55262.216     1.885E-21
  55262.287     1.287E-21
  55262.358     1.330E-21
  55262.429     1.352E-21
  55262.500     2.173E-21
  55262.571     2.914E-21
  55262.642     3.245E-21
  55262.713     3.542E-21
  55262.784     3.223E-21
  55262.855     2.873E-21
  55262.926     2.892E-21
  55262.997     2.649E-21
  55263.068     2.534E-21
  55263.139     2.702E-21
  55263.210     3.416E-21
  55263.281     4.292E-21
  55263.352     4.885E-21
  55263.422     5.418E-21
  55263.493     5.603E-21
  55263.564     5.162E-21
  55263.635     4.728E-21
  55263.706     4.472E-21
  55263.777     4.256E-21
  55263.848     4.592E-21
  55263.919     4.990E-21
  55263.990     4.994E-21
  55264.061     5.144E-21
  55264.132     5.317E-21
  55264.203     4.884E-21
  55264.274     4.545E-21
  55264.345     4.336E-21
  55264.416     4.015E-21
  55264.487     3.628E-21
  55264.558     3.289E-21
  55264.629     2.814E-21
  55264.700     2.676E-21
  55264.771     2.085E-21
  55264.842     1.543E-21
  55264.913     1.763E-21
  55264.984     1.855E-21
  55265.055     1.918E-21
  55265.125     1.852E-21
  55265.196     1.426E-21
  55265.267     1.141E-21
  55265.338     1.451E-21
  55265.409     1.509E-21
  55265.480     1.691E-21
  55265.551     1.897E-21
  55265.622     1.997E-21
  55265.693     1.590E-21
  55265.764     1.438E-21
  55265.835     1.141E-21
  55265.906     8.182E-22
  55265.977     8.118E-22
  55266.048     1.272E-21
  55266.119     1.891E-21
  55266.190     2.040E-21
  55266.261     1.967E-21
  55266.332     2.203E-21
  55266.403     2.235E-21
  55266.474     2.571E-21
  55266.545     2.403E-21
  55266.616     2.143E-21
  55266.687     1.798E-21
  55266.758     1.770E-21
  55266.829     2.407E-21
  55266.900     3.450E-21
  55266.970     4.117E-21
  55267.041     4.738E-21
  55267.112     5.081E-21
  55267.183     5.060E-21
  55267.254     5.561E-21
  55267.325     6.287E-21
  55267.396     6.258E-21
  55267.467     6.210E-21
  55267.538     6.352E-21
  55267.609     6.105E-21
  55267.680     6.245E-21
  55267.751     5.686E-21
  55267.822     4.788E-21
  55267.893     4.101E-21
  55267.964     3.479E-21
  55268.035     3.438E-21
  55268.106     3.630E-21
  55268.177     4.072E-21
  55268.248     4.003E-21
  55268.319     3.649E-21
  55268.390     3.056E-21
  55268.461     2.709E-21
  55268.532     2.469E-21
  55268.603     2.095E-21
  55268.674     1.693E-21
  55268.745     1.536E-21
  55268.816     1.805E-21
  55268.887     2.232E-21
  55268.958     2.450E-21
  55269.028     2.489E-21
  55269.099     2.515E-21
  55269.170     2.492E-21
  55269.241     2.539E-21
  55269.312     2.723E-21
  55269.383     3.209E-21
  55269.454     3.749E-21
  55269.525     3.582E-21
  55269.596     3.040E-21
  55269.667     2.655E-21
  55269.738     2.180E-21
  55269.809     1.784E-21
  55269.880     1.678E-21
  55269.951     2.174E-21
  55270.022     2.337E-21
  55270.093     2.617E-21
  55270.164     3.021E-21
  55270.235     3.353E-21
  55270.306     4.013E-21
  55270.377     4.826E-21
  55270.448     5.267E-21
  55270.519     5.349E-21
  55270.590     5.116E-21
  55270.661     4.916E-21
  55270.732     4.471E-21
  55270.803     4.122E-21
  55270.874     3.484E-21
  55270.945     3.080E-21
  55271.016     3.203E-21
  55271.087     3.608E-21
  55271.158     3.855E-21
  55271.229     4.224E-21
  55271.300     3.624E-21
  55271.370     2.920E-21
  55271.441     2.493E-21
  55271.512     2.088E-21
  55271.583     2.463E-21
  55271.654     3.327E-21
  55271.725     3.627E-21
  55271.796     3.755E-21
  55271.867     2.968E-21
  55271.938     2.266E-21
  55272.009     1.617E-21
  55272.080     1.361E-21
  55272.151     1.726E-21
  55272.222     2.152E-21
  55272.293     2.711E-21
  55272.364     2.992E-21
  55272.435     3.061E-21
  55272.506     2.900E-21
  55272.577     2.982E-21
  55272.648     3.214E-21
  55272.719     3.533E-21
  55272.790     3.314E-21
  55272.861     2.754E-21
  55272.932     2.815E-21
  55273.003     2.973E-21
  55273.074     3.108E-21
  55273.145     3.598E-21
  55273.216     3.881E-21
  55273.287     4.010E-21
  55273.358     3.730E-21
  55273.429     3.392E-21
  55273.500     3.372E-21
  55273.571     3.174E-21
  55273.642     3.052E-21
  55273.713     3.444E-21
  55273.784     3.714E-21
  55273.855     3.423E-21
  55273.926     3.071E-21
  55273.997     3.069E-21
  55274.068     3.032E-21
  55274.139     3.028E-21
  55274.209     2.558E-21
  55274.280     1.733E-21
  55274.351     1.047E-21
  55274.422     7.604E-22
  55274.493     5.835E-22
  55274.564     7.500E-22
  55274.635     7.359E-22
  55274.706     7.707E-22
  55274.777     1.096E-21
  55274.848     1.295E-21
  55274.919     1.510E-21
  55274.990     1.391E-21
  55275.061     1.406E-21
  55275.132     1.304E-21
  55275.203     1.004E-21
  55275.274     1.296E-21
  55275.345     1.565E-21
  55275.416     1.814E-21
  55275.487     2.237E-21
  55275.558     2.654E-21
  55275.629     3.197E-21
  55275.700     3.490E-21
  55275.771     3.228E-21
  55275.842     3.254E-21
  55275.913     3.092E-21
  55275.984     2.979E-21
  55276.055     2.670E-21
  55276.126     2.215E-21
  55276.197     1.805E-21
  55276.268     1.709E-21
  55276.339     2.002E-21
  55276.410     2.651E-21
  55276.481     3.042E-21
  55276.552     3.257E-21
  55276.623     3.296E-21
  55276.694     3.607E-21
  55276.765     3.846E-21
  55276.836     3.517E-21
  55276.907     3.131E-21
  55276.978     2.510E-21
  55277.049     1.722E-21
  55277.120     1.658E-21
  55277.191     1.720E-21
  55277.262     1.944E-21
  55277.333     2.153E-21
  55277.404     2.370E-21
  55277.475     2.662E-21
  55277.546     2.965E-21
  55277.617     3.080E-21
  55277.688     2.760E-21
  55277.759     2.311E-21
  55277.830     2.301E-21
  55277.901     2.742E-21
  55277.972     3.114E-21
  55278.043     3.552E-21
  55278.113     4.495E-21
  55278.184     5.692E-21
  55278.255     6.447E-21
  55278.326     6.586E-21
  55278.397     6.227E-21
  55278.468     5.687E-21
  55278.539     5.583E-21
  55278.610     5.396E-21
  55278.681     5.265E-21
  55278.752     4.971E-21
  55278.823     4.920E-21
  55278.894     4.791E-21
  55278.965     4.548E-21
  55279.036     4.360E-21
  55279.107     4.366E-21
  55279.178     4.476E-21
  55279.249     4.449E-21
  55279.320     4.663E-21
  55279.391     4.273E-21
  55279.462     3.664E-21
  55279.533     3.381E-21
  55279.604     3.001E-21
  55279.675     2.381E-21
  55279.746     1.887E-21
  55279.817     1.137E-21
  55279.888     7.598E-22
  55279.959     2.359E-22
  55280.030    -1.635E-23
  55280.101     3.625E-22
  55280.172     4.920E-22
  55280.243     6.832E-22
  55280.314     8.765E-22
  55280.385     1.035E-21
  55280.456     9.316E-22
  55280.527     6.483E-22
  55280.598     4.504E-22
  55280.669     4.821E-22
  55280.740     6.766E-22
  55280.811     7.653E-22
  55280.882     1.217E-22
  55280.953    -1.350E-22
  55281.024     4.490E-22
  55281.095     9.391E-22
  55281.166     1.474E-21
  55281.237     2.061E-21
  55281.308     2.561E-21
  55281.379     2.455E-21
  55281.450     2.049E-21
  55281.521     2.589E-21
  55281.592     3.630E-21
  55281.663     4.846E-21
  55281.734     5.777E-21
  55281.805     6.164E-21
  55281.876     5.863E-21
  55281.947     5.760E-21
  55282.018     5.231E-21
  55282.089     5.002E-21
  55282.160     4.812E-21
  55282.231     5.185E-21
  55282.302     6.284E-21
  55282.373     6.143E-21
  55282.444     5.794E-21
  55282.515     6.071E-21
  55282.586     6.163E-21
  55282.657     5.592E-21
  55282.728     5.121E-21
  55282.799     4.586E-21
  55282.870     3.942E-21
  55282.941     3.381E-21
  55283.012     3.902E-21
  55283.083     4.483E-21
  55283.154     4.376E-21
  55283.225     4.256E-21
  55283.296     4.021E-21
  55283.367     4.123E-21
  55283.438     4.329E-21
  55283.509     4.651E-21
  55283.580     5.148E-21
  55283.651     5.439E-21
  55283.722     5.359E-21
  55283.793     5.452E-21
  55283.864     4.957E-21
  55283.935     4.323E-21
  55284.006     3.916E-21
  55284.077     3.698E-21
  55284.148     3.589E-21
  55284.219     3.679E-21
  55284.290     3.413E-21
  55284.361     3.097E-21
  55284.432     2.625E-21
  55284.503     2.281E-21
  55284.574     2.245E-21
  55284.645     2.373E-21
  55284.716     2.350E-21
  55284.787     2.154E-21
  55284.858     1.866E-21
  55284.929     1.241E-21
  55285.000     9.599E-22
  55285.071     7.097E-22
  55285.142     7.509E-22
  55285.213     7.467E-22
  55285.284     6.957E-22
  55285.355     7.692E-22
  55285.426     9.032E-22
  55285.497     8.568E-22
  55285.568     1.048E-21
  55285.639     1.901E-21
  55285.710     2.217E-21
  55285.781     1.903E-21
  55285.852     1.748E-21
  55285.923     1.370E-21
  55285.994     1.444E-21
  55286.065     1.520E-21
  55286.136     1.569E-21
  55286.207     2.067E-21
  55286.278     2.485E-21
  55286.349     2.299E-21
  55286.420     1.730E-21
  55286.491     1.547E-21
  55286.562     1.629E-21
  55286.633     2.063E-21
  55286.704     2.144E-21
  55286.775     1.625E-21
  55286.846     9.680E-22
  55286.917     7.192E-22
  55286.988     7.225E-22
  55287.059     5.541E-22
  55287.130     2.865E-22
  55287.201     2.251E-22
  55287.272    -1.027E-22
  55287.343    -5.947E-22
  55287.414    -1.245E-21
  55287.485    -1.381E-21
  55287.556    -1.357E-21
  55287.627    -7.978E-22
  55287.698    -2.785E-22
  55287.769    -5.356E-22
  55287.840    -9.651E-22
  55287.911    -1.216E-21
  55287.982    -9.768E-22
  55288.053    -5.407E-22
  55288.124     1.064E-22
  55288.195     8.744E-23
  55288.266    -4.372E-22
  55288.337    -4.934E-22
  55288.408    -7.309E-22
  55288.479    -6.287E-22
  55288.550    -1.830E-22
  55288.621     4.678E-22
  55288.692     8.349E-22
  55288.763     7.093E-22
  55288.834     5.457E-22
  55288.905     7.666E-22
  55288.976     1.077E-21
  55289.047     1.155E-21
  55289.118     1.236E-21
  55289.189     1.019E-21
  55289.260     5.101E-22
  55289.331    -1.115E-22
  55289.402    -6.386E-22
  55289.473    -1.193E-21
  55289.544    -1.496E-21
  55289.615    -1.228E-21
  55289.686    -8.392E-22
  55289.757    -5.721E-22
  55289.828    -2.899E-22
  55289.899     3.138E-22
  55289.970     6.478E-22
  55290.041     1.405E-21
  55290.112     2.007E-21
  55290.183     2.007E-21
  55290.254     2.035E-21
  55290.325     1.904E-21
  55290.396     1.754E-21
  55290.467     1.606E-21
  55290.538     1.732E-21
  55290.609     1.803E-21
  55290.680     1.540E-21
  55290.751     9.356E-22
  55290.822     4.874E-22
  55290.893     8.232E-22
  55290.964     1.067E-21
  55291.035     1.039E-21
  55291.106     1.024E-21
  55291.177     1.072E-21
  55291.248     1.274E-21
  55291.319     1.829E-21
  55291.390     1.700E-21
  55291.461     1.162E-21
  55291.532     9.303E-22
  55291.603     6.900E-22
  55291.674     2.373E-22
  55291.745    -1.835E-22
  55291.816    -2.886E-22
  55291.887    -2.837E-22
  55291.958     5.135E-22
  55292.029     9.845E-22
  55292.101     1.211E-21
  55292.172     1.261E-21
  55292.243     4.744E-22
  55292.314    -3.315E-22
  55292.385    -1.042E-21
  55292.456    -1.173E-21
  55292.527    -6.932E-22
  55292.598    -4.486E-22
  55292.669     3.564E-22
  55292.740     1.136E-21
  55292.811     9.477E-22
  55292.882     7.955E-23
  55292.953    -5.590E-22
  55293.024    -9.444E-22
  55293.095    -1.236E-21
  55293.166    -1.671E-21
  55293.237    -2.144E-21
  55293.308    -2.093E-21
  55293.379    -2.057E-21
  55293.450    -2.217E-21
  55293.521    -2.279E-21
  55293.592    -2.198E-21
  55293.663    -2.121E-21
  55293.734    -1.947E-21
  55293.805    -1.844E-21
  55293.876    -1.461E-21
  55293.947    -1.170E-21
  55294.018    -1.076E-21
  55294.089    -1.156E-21
  55294.160    -1.063E-21
  55294.231    -7.110E-22
  55294.302    -6.754E-22
  55294.373    -8.040E-22
  55294.444    -7.061E-22
  55294.515    -1.128E-21
  55294.586    -1.092E-21
  55294.657    -6.399E-22
  55294.728     3.985E-22
  55294.799     8.431E-22
  55294.870     1.227E-21
  55294.941     1.030E-21
  55295.012     6.217E-22
  55295.083     1.859E-22
  55295.154    -3.135E-22
  55295.225    -5.701E-22
  55295.296    -9.626E-22
  55295.367    -8.019E-22
  55295.438    -5.975E-22
  55295.509    -9.704E-22
  55295.580    -8.282E-22
  55295.651    -4.507E-22
  55295.722     2.132E-22
  55295.793     8.385E-22
  55295.864     1.443E-21
  55295.935     1.506E-21
  55296.006     1.420E-21
  55296.078     1.477E-21
  55296.149     1.229E-21
  55296.220     1.012E-21
  55296.291     1.469E-21
  55296.362     1.691E-21
  55296.433     1.503E-21
  55296.504     1.423E-21
  55296.575     8.191E-22
  55296.646     1.174E-22
  55296.717    -8.751E-23
  55296.788    -2.853E-23
  55296.859     4.955E-22
  55296.930     1.578E-21
  55297.001     2.032E-21
  55297.072     1.805E-21
  55297.143     1.580E-21
  55297.214     1.175E-21
  55297.285     1.132E-21
  55297.356     1.229E-21
  55297.427     9.571E-22
  55297.498     5.309E-22
  55297.569     1.281E-22
  55297.640    -9.666E-23
  55297.705    -3.409E-22
