 18O2;(10,0);79K;54575-905 cm-1;4744 pts
     WNO         SIGMA 
  54575.088    -3.840E-22
  54575.157     1.872E-22
  54575.226     6.803E-22
  54575.296     8.862E-22
  54575.365     6.370E-22
  54575.434     1.422E-22
  54575.504    -3.084E-22
  54575.573    -2.686E-22
  54575.642     1.803E-22
  54575.712     5.083E-22
  54575.781     9.623E-22
  54575.850     1.252E-21
  54575.919     1.335E-21
  54575.989     1.084E-21
  54576.058     7.512E-22
  54576.127     5.437E-22
  54576.197     5.427E-22
  54576.266     3.358E-22
  54576.335     1.705E-22
  54576.405     8.749E-23
  54576.474     8.651E-23
  54576.543    -1.191E-22
  54576.612    -1.609E-22
  54576.682    -3.251E-22
  54576.751    -6.108E-22
  54576.820    -6.929E-22
  54576.890    -8.558E-22
  54576.959    -5.325E-22
  54577.028     3.250E-22
  54577.097     4.063E-22
  54577.167     1.587E-22
  54577.236     1.167E-22
  54577.305     1.157E-22
  54577.375     1.558E-22
  54577.444     4.426E-22
  54577.513     9.377E-22
  54577.583     1.771E-21
  54577.652     1.770E-21
  54577.721     1.727E-21
  54577.790     1.350E-21
  54577.860     5.604E-22
  54577.929     1.069E-22
  54577.998     1.059E-22
  54578.068     2.691E-22
  54578.137     4.740E-22
  54578.206     5.968E-22
  54578.276     8.440E-22
  54578.345     1.092E-21
  54578.414     1.466E-21
  54578.483     1.717E-21
  54578.553     1.548E-21
  54578.622     1.213E-21
  54578.691     8.795E-22
  54578.761     7.957E-22
  54578.830     6.705E-22
  54578.899     4.631E-22
  54578.969     4.210E-22
  54579.038     4.200E-22
  54579.107     4.190E-22
  54579.177     5.830E-22
  54579.246     4.170E-22
  54579.315     2.514E-22
  54579.384     1.272E-22
  54579.454    -3.767E-23
  54579.523     2.074E-22
  54579.592    -1.215E-22
  54579.662    -7.737E-22
  54579.731    -9.770E-22
  54579.800    -8.971E-22
  54579.870    -5.738E-22
  54579.939    -1.264E-22
  54580.008     1.184E-22
  54580.077     1.174E-22
  54580.147    -6.554E-24
  54580.216    -2.529E-22
  54580.285    -7.015E-22
  54580.355    -6.619E-22
  54580.424    -5.410E-22
  54580.493    -1.147E-23
  54580.563     4.396E-22
  54580.632     6.037E-22
  54580.701     3.140E-22
  54580.771     1.897E-22
  54580.840     6.558E-23
  54580.909     2.360E-23
  54580.978     1.046E-22
  54581.048    -1.934E-23
  54581.117    -1.022E-22
  54581.186    -6.225E-23
  54581.256    -1.042E-22
  54581.325     5.870E-23
  54581.394     2.631E-22
  54581.464     3.444E-22
  54581.533    -1.081E-22
  54581.602    -3.541E-22
  54581.672    -2.327E-22
  54581.741    -2.337E-22
  54581.810    -1.529E-22
  54581.879     9.836E-24
  54581.949    -2.775E-22
  54582.018    -3.600E-22
  54582.087    -1.569E-22
  54582.157     4.690E-23
  54582.226     3.336E-22
  54582.295     2.503E-22
  54582.365     1.260E-22
  54582.434     8.398E-23
  54582.503    -1.219E-22
  54582.573    -6.933E-22
  54582.642    -1.300E-21
  54582.711    -1.543E-21
  54582.781    -1.584E-21
  54582.850    -1.585E-21
  54582.919    -1.184E-21
  54582.988    -6.586E-22
  54583.058    -1.297E-22
  54583.127    -2.534E-22
  54583.196    -8.238E-22
  54583.266    -1.148E-21
  54583.335    -1.068E-21
  54583.404    -9.078E-22
  54583.474    -4.215E-22
  54583.543     4.385E-22
  54583.612     8.512E-22
  54583.682     8.502E-22
  54583.751     6.835E-22
  54583.820     2.286E-22
  54583.890     2.276E-22
  54583.959     6.391E-22
  54584.028     5.968E-22
  54584.097     5.132E-22
  54584.167     5.122E-22
  54584.236     5.525E-22
  54584.305     3.452E-22
  54584.375     3.031E-22
  54584.444     4.670E-22
  54584.513     5.073E-22
  54584.583     4.650E-22
  54584.652     5.053E-22
  54584.721     4.630E-22
  54584.791     4.208E-22
  54584.860     4.611E-22
  54584.929     5.014E-22
  54584.999     2.942E-22
  54585.068    -3.542E-23
  54585.137    -2.819E-22
  54585.207    -7.713E-22
  54585.276    -7.723E-22
  54585.345    -1.622E-22
  54585.414     6.185E-22
  54585.484     1.282E-21
  54585.553     1.700E-21
  54585.622     1.699E-21
  54585.692     1.489E-21
  54585.761     1.112E-21
  54585.830     8.612E-22
  54585.900     8.602E-22
  54585.969     1.150E-21
  54586.038     1.191E-21
  54586.108     1.107E-21
  54586.177     8.978E-22
  54586.246     5.240E-22
  54586.316     2.755E-22
  54586.385     2.745E-22
  54586.454    -1.411E-23
  54586.524    -1.509E-23
  54586.593    -9.805E-23
  54586.662    -1.400E-22
  54586.732     1.873E-22
  54586.801     5.574E-22
  54586.870     5.151E-22
  54586.940     3.490E-22
  54587.009    -1.858E-22
  54587.078    -3.911E-22
  54587.147    -6.771E-22
  54587.217    -7.187E-22
  54587.286    -5.163E-22
  54587.355    -5.580E-22
  54587.425    -4.776E-22
  54587.494    -2.888E-23
  54587.563     7.951E-22
  54587.633     1.419E-21
  54587.702     1.796E-21
  54587.771     1.879E-21
  54587.841     1.794E-21
  54587.910     1.835E-21
  54587.979     1.582E-21
  54588.049     1.330E-21
  54588.118     9.118E-22
  54588.187     3.313E-22
  54588.257    -1.217E-22
  54588.326    -2.454E-22
  54588.395    -2.464E-22
  54588.465    -4.108E-22
  54588.534    -6.968E-22
  54588.603    -4.943E-22
  54588.673    -4.545E-22
  54588.742    -4.963E-22
  54588.811    -3.749E-22
  54588.881     2.803E-22
  54588.950     7.339E-22
  54589.019     8.574E-22
  54589.089     1.106E-21
  54589.158     8.970E-22
  54589.227     7.715E-22
  54589.297     8.120E-22
  54589.366     1.186E-21
  54589.435     1.519E-21
  54589.505     1.393E-21
  54589.574     1.141E-21
  54589.643     1.098E-21
  54589.713     9.723E-22
  54589.782     7.221E-22
  54589.851     4.728E-22
  54589.920     6.787E-22
  54589.990     6.363E-22
  54590.059     5.525E-22
  54590.128     1.390E-22
  54590.198    -1.083E-22
  54590.267    -4.772E-22
  54590.336    -6.004E-22
  54590.406    -3.159E-22
  54590.475    -3.168E-22
  54590.544    -3.995E-22
  54590.614    -7.320E-23
  54590.683     3.371E-22
  54590.752     8.328E-22
  54590.822     1.165E-21
  54590.891     8.724E-22
  54590.960     5.811E-22
  54591.030     4.560E-22
  54591.099     2.075E-22
  54591.168     2.066E-22
  54591.238     1.233E-22
  54591.307    -3.695E-22
  54591.376    -1.250E-22
  54591.446     3.263E-22
  54591.515     6.146E-22
  54591.584     7.380E-22
  54591.654     8.200E-22
  54591.723     2.811E-22
  54591.792    -1.309E-22
  54591.862    -4.182E-22
  54591.931    -6.637E-22
  54592.000    -5.833E-22
  54592.070    -4.620E-22
  54592.139    -2.178E-22
  54592.208     3.567E-22
  54592.278     7.696E-22
  54592.347     7.686E-22
  54592.416     9.755E-22
  54592.486     1.267E-21
  54592.555     1.182E-21
  54592.624     7.647E-22
  54592.694     7.637E-22
  54592.763     6.383E-22
  54592.832     3.065E-22
  54592.902     1.742E-23
  54592.971    -2.705E-22
  54593.040    -1.077E-22
  54593.110    -6.765E-23
  54593.179    -2.735E-22
  54593.248    -6.962E-23
  54593.318     5.062E-22
  54593.387     9.201E-22
  54593.456     1.002E-21
  54593.526     1.168E-21
  54593.595     8.755E-22
  54593.664     4.186E-22
  54593.734     2.525E-22
  54593.803     3.753E-22
  54593.872     6.640E-22
  54593.942     9.538E-22
  54594.011     9.112E-22
  54594.080     4.126E-22
  54594.150     4.076E-23
  54594.219     2.456E-22
  54594.288     1.210E-22
  54594.358    -2.493E-22
  54594.427    -2.503E-22
  54594.496     7.695E-23
  54594.566     1.583E-22
  54594.635     5.702E-22
  54594.704     8.182E-22
  54594.774     1.485E-21
  54594.843     2.116E-21
  54594.913     2.455E-21
  54594.982     2.667E-21
  54595.051     2.325E-21
  54595.121     1.648E-21
  54595.190     1.019E-21
  54595.259     8.935E-22
  54595.329     9.757E-22
  54595.398     8.915E-22
  54595.467     3.929E-22
  54595.537     1.445E-22
  54595.606     1.435E-22
  54595.675     1.837E-22
  54595.745     3.890E-22
  54595.814     5.949E-22
  54595.883     5.939E-22
  54595.953     3.860E-22
  54596.022     1.376E-22
  54596.091     5.427E-23
  54596.161    -1.110E-22
  54596.230    -4.395E-22
  54596.299    -1.540E-22
  54596.369     3.388E-22
  54596.438     4.205E-22
  54596.507     6.265E-22
  54596.577     7.085E-22
  54596.646     7.075E-22
  54596.715     1.039E-21
  54596.785     1.122E-21
  54596.854     7.876E-22
  54596.923     3.309E-22
  54596.993    -4.076E-23
  54597.062    -4.175E-23
  54597.131     2.454E-22
  54597.201     5.752E-22
  54597.270     4.913E-22
  54597.339     7.807E-22
  54597.409     1.322E-21
  54597.478     1.615E-21
  54597.548     1.698E-21
  54597.617     1.487E-21
  54597.686     6.512E-22
  54597.756     3.604E-22
  54597.825     1.531E-22
  54597.894    -5.359E-23
  54597.964    -5.457E-23
  54598.033    -9.663E-23
  54598.102    -4.662E-22
  54598.172    -2.626E-22
  54598.241    -1.743E-23
  54598.310    -5.951E-23
  54598.380     4.342E-22
  54598.449     4.746E-22
  54598.518     7.639E-22
  54598.588     1.431E-21
  54598.657     1.556E-21
  54598.726     1.429E-21
  54598.796     1.010E-21
  54598.865     3.446E-22
  54598.934    -6.839E-23
  54599.004    -1.925E-22
  54599.073     2.590E-22
  54599.142     7.135E-22
  54599.212     1.087E-21
  54599.281     1.421E-21
  54599.351     1.127E-21
  54599.420     6.265E-22
  54599.489     5.012E-22
  54599.559     6.245E-22
  54599.628     5.821E-22
  54599.697     2.089E-22
  54599.767     4.558E-22
  54599.836     5.377E-22
  54599.905     9.106E-22
  54599.975     1.244E-21
  54600.044     1.326E-21
  54600.113     1.284E-21
  54600.183     1.115E-21
  54600.252     9.057E-22
  54600.321     5.308E-22
  54600.391     5.712E-22
  54600.460     8.611E-22
  54600.529     1.152E-21
  54600.599     9.841E-22
  54600.668     6.088E-22
  54600.738     1.941E-22
  54600.807     2.344E-22
  54600.876     5.643E-22
  54600.946     3.977E-22
  54601.015    -1.579E-23
  54601.084    -5.494E-22
  54601.154    -9.574E-22
  54601.223    -9.584E-22
  54601.292    -6.747E-22
  54601.362    -1.029E-22
  54601.431     4.735E-22
  54601.500     8.046E-22
  54601.570     7.205E-22
  54601.639     5.120E-22
  54601.708     3.454E-22
  54601.778     3.858E-22
  54601.847     1.783E-22
  54601.917     1.361E-22
  54601.986     1.763E-22
  54602.055     1.753E-22
  54602.125     9.546E-24
  54602.194    -3.199E-22
  54602.263    -4.845E-22
  54602.333    -5.264E-22
  54602.402    -5.682E-22
  54602.471    -9.356E-22
  54602.541    -1.099E-21
  54602.610    -1.019E-21
  54602.679    -6.537E-22
  54602.749    -2.048E-22
  54602.818    -3.292E-25
  54602.888    -3.707E-22
  54602.957    -5.761E-22
  54603.026    -4.136E-22
  54603.096    -1.276E-22
  54603.165     3.590E-23
  54603.234     7.609E-23
  54603.304    -1.306E-22
  54603.373    -1.316E-22
  54603.442     4.863E-22
  54603.512     9.010E-22
  54603.581     1.151E-21
  54603.650     1.150E-21
  54603.720     8.980E-22
  54603.789     6.473E-22
  54603.859     5.218E-22
  54603.928     7.285E-22
  54603.997     6.444E-22
  54604.067     3.532E-22
  54604.136     4.350E-22
  54604.205     3.512E-22
  54604.275     3.916E-22
  54604.344     4.321E-22
  54604.413     5.139E-22
  54604.483     5.959E-22
  54604.552     3.877E-22
  54604.622     3.040E-22
  54604.691     3.030E-22
  54604.760     9.249E-22
  54604.830     1.426E-21
  54604.899     1.299E-21
  54604.968     8.802E-22
  54605.038     4.222E-22
  54605.107     2.557E-22
  54605.176     3.374E-22
  54605.246     3.364E-22
  54605.315     6.256E-22
  54605.384     7.910E-22
  54605.454     6.652E-22
  54605.523     7.474E-22
  54605.593     9.547E-22
  54605.662     9.955E-22
  54605.731     1.539E-21
  54605.801     1.707E-21
  54605.870     1.875E-21
  54605.939     2.255E-21
  54606.009     2.595E-21
  54606.078     2.637E-21
  54606.147     2.508E-21
  54606.217     2.550E-21
  54606.286     2.891E-21
  54606.356     2.804E-21
  54606.425     2.718E-21
  54606.494     2.460E-21
  54606.564     1.738E-21
  54606.633     1.400E-21
  54606.702     1.357E-21
  54606.772     1.651E-21
  54606.841     1.861E-21
  54606.911     1.987E-21
  54606.980     1.986E-21
  54607.049     1.774E-21
  54607.119     1.478E-21
  54607.188     1.183E-21
  54607.257     1.056E-21
  54607.327     9.300E-22
  54607.396     9.708E-22
  54607.465     7.613E-22
  54607.535     8.436E-22
  54607.604     1.051E-21
  54607.674     1.134E-21
  54607.743     1.091E-21
  54607.812     1.090E-21
  54607.882     9.639E-22
  54607.951     1.214E-21
  54608.020     1.675E-21
  54608.090     2.055E-21
  54608.159     2.394E-21
  54608.229     2.308E-21
  54608.298     1.840E-21
  54608.367     1.376E-21
  54608.437     9.559E-22
  54608.506     7.049E-22
  54608.575     4.961E-22
  54608.645     8.146E-23
  54608.714     3.923E-23
  54608.783    -2.497E-22
  54608.853    -2.918E-22
  54608.922    -4.944E-24
  54608.992     7.651E-23
  54609.061     1.994E-22
  54609.130     1.984E-22
  54609.200    -9.125E-23
  54609.269    -5.843E-22
  54609.338    -9.522E-22
  54609.408    -9.532E-22
  54609.477    -1.035E-21
  54609.547    -1.077E-21
  54609.616    -1.402E-21
  54609.685    -8.758E-22
  54609.755    -3.046E-22
  54609.824     2.712E-22
  54609.893     5.604E-22
  54609.963     3.106E-22
  54610.032    -2.077E-23
  54610.102    -6.294E-23
  54610.171    -2.695E-22
  54610.240    -1.883E-22
  54610.310     1.403E-22
  54610.379     4.289E-22
  54610.448     7.188E-22
  54610.518     6.346E-22
  54610.587     1.363E-22
  54610.657    -3.585E-22
  54610.726    -6.051E-22
  54610.795    -7.286E-22
  54610.865    -1.136E-21
  54610.934    -1.421E-21
  54611.003    -1.422E-21
  54611.073    -1.382E-21
  54611.142    -5.293E-22
  54611.212    -1.199E-22
  54611.281    -3.857E-23
  54611.350     2.494E-22
  54611.420     7.049E-22
  54611.489     1.038E-21
  54611.558     1.162E-21
  54611.628     1.624E-21
  54611.697     1.834E-21
  54611.767     1.327E-21
  54611.836     1.158E-21
  54611.905     1.032E-21
  54611.975     1.031E-21
  54612.044     1.072E-21
  54612.113     9.035E-22
  54612.183     9.861E-22
  54612.252     1.027E-21
  54612.322     1.110E-21
  54612.391     1.740E-21
  54612.460     1.823E-21
  54612.530     1.695E-21
  54612.599     1.484E-21
  54612.668     1.105E-21
  54612.738     9.782E-22
  54612.807     5.188E-22
  54612.877     2.690E-22
  54612.946     4.753E-22
  54613.015     9.324E-22
  54613.085     9.314E-22
  54613.154     5.139E-22
  54613.223    -1.075E-22
  54613.293    -5.599E-22
  54613.362    -5.200E-22
  54613.432    -1.927E-22
  54613.501     1.361E-22
  54613.570     5.910E-22
  54613.640     9.235E-22
  54613.709     7.139E-22
  54613.779     3.390E-22
  54613.848    -1.987E-22
  54613.917    -2.408E-22
  54613.987     8.782E-23
  54614.056     5.010E-22
  54614.125     7.497E-22
  54614.195     5.821E-22
  54614.264    -3.992E-23
  54614.334    -4.519E-22
  54614.403    -8.208E-22
  54614.472    -9.847E-22
  54614.542    -1.189E-21
  54614.611    -1.190E-21
  54614.681    -7.840E-22
  54614.750    -4.989E-22
  54614.819    -4.589E-22
  54614.889    -2.546E-22
  54614.958     1.153E-22
  54615.027     3.626E-22
  54615.097     1.960E-22
  54615.166     1.950E-22
  54615.236     2.354E-22
  54615.305     2.344E-22
  54615.374     3.577E-22
  54615.444     2.738E-22
  54615.513     1.073E-22
  54615.583    -2.234E-22
  54615.652    -3.477E-22
  54615.721    -2.665E-22
  54615.791    -2.675E-22
  54615.860    -1.451E-22
  54615.929    -1.049E-22
  54615.999     1.783E-23
  54616.068     1.408E-22
  54616.138     5.128E-22
  54616.207     8.034E-22
  54616.276     7.190E-22
  54616.346     3.438E-22
  54616.415     3.428E-22
  54616.485     4.248E-22
  54616.554     2.166E-22
  54616.623    -2.383E-22
  54616.693    -3.215E-22
  54616.762    -1.991E-22
  54616.831    -3.532E-23
  54616.901     2.944E-22
  54616.970     2.106E-22
  54617.040    -2.031E-22
  54617.109    -2.452E-22
  54617.178    -1.639E-22
  54617.248    -1.649E-22
  54617.317     1.229E-22
  54617.387     7.865E-22
  54617.456     1.456E-21
  54617.525     1.624E-21
  54617.595     1.497E-21
  54617.664     1.622E-21
  54617.734     1.790E-21
  54617.803     1.874E-21
  54617.872     1.873E-21
  54617.942     1.365E-21
  54618.011     1.238E-21
  54618.080     1.069E-21
  54618.150     9.428E-22
  54618.219     5.663E-22
  54618.289    -9.735E-23
  54618.358    -7.549E-22
  54618.427    -1.122E-21
  54618.497    -1.001E-21
  54618.566    -5.533E-22
  54618.636    -1.435E-22
  54618.705    -3.091E-22
  54618.774    -3.923E-22
  54618.844    -3.111E-22
  54618.913    -1.475E-22
  54618.983    -1.073E-22
  54619.052    -1.495E-22
  54619.121    -2.675E-23
  54619.191    -1.102E-22
  54619.260    -1.524E-22
  54619.330     9.420E-23
  54619.399     3.002E-22
  54619.468     2.992E-22
  54619.538     3.397E-22
  54619.607     9.024E-23
  54619.677     8.925E-23
  54619.746    -2.006E-22
  54619.815    -5.302E-22
  54619.885    -9.806E-22
  54619.954    -1.388E-21
  54620.024    -1.631E-21
  54620.093    -1.874E-21
  54620.162    -1.674E-21
  54620.232    -1.229E-21
  54620.301    -5.371E-22
  54620.370    -2.918E-22
  54620.440    -8.684E-23
  54620.509     1.601E-22
  54620.579     2.834E-22
  54620.648     4.900E-22
  54620.717     1.985E-22
  54620.787    -2.154E-22
  54620.856    -4.220E-22
  54620.926    -6.280E-22
  54620.995    -6.699E-22
  54621.064    -4.250E-22
  54621.134    -6.309E-22
  54621.203    -8.771E-22
  54621.273    -1.204E-21
  54621.342    -1.164E-21
  54621.411    -8.801E-22
  54621.481    -1.003E-21
  54621.550    -5.140E-22
  54621.620     1.442E-22
  54621.689     9.759E-22
  54621.758     1.691E-21
  54621.828     1.647E-21
  54621.897     1.015E-21
  54621.967     3.050E-22
  54622.036    -1.921E-22
  54622.105    -3.577E-22
  54622.175     5.356E-23
  54622.244     4.672E-22
  54622.314     3.831E-22
  54622.383     1.333E-22
  54622.452    -7.433E-23
  54622.522    -3.225E-22
  54622.591    -5.288E-22
  54622.661    -6.937E-22
  54622.730    -8.173E-22
  54622.799    -6.547E-22
  54622.869    -4.918E-22
  54622.938    -3.696E-22
  54623.008    -2.883E-22
  54623.077    -4.197E-23
  54623.146    -4.296E-23
  54623.216    -8.523E-23
  54623.285    -1.275E-22
  54623.355    -4.987E-22
  54623.424    -7.864E-22
  54623.493    -9.098E-22
  54623.563    -9.108E-22
  54623.632    -8.302E-22
  54623.702    -9.128E-22
  54623.771    -1.036E-21
  54623.841    -8.740E-22
  54623.910    -6.706E-22
  54623.979    -4.255E-22
  54624.049    -1.455E-23
  54624.118    -1.806E-22
  54624.188    -4.696E-22
  54624.257    -8.800E-22
  54624.326    -1.207E-21
  54624.396    -1.167E-21
  54624.465    -1.046E-21
  54624.535    -5.566E-22
  54624.604    -6.805E-22
  54624.673    -9.675E-22
  54624.743    -9.685E-22
  54624.812    -5.196E-22
  54624.882     1.390E-22
  54624.951     4.285E-22
  54625.020     6.358E-22
  54625.090     4.681E-22
  54625.159     2.179E-22
  54625.229     2.169E-22
  54625.298     3.404E-22
  54625.367     3.810E-22
  54625.437     1.725E-22
  54625.506    -2.417E-22
  54625.576    -4.484E-22
  54625.645    -5.315E-22
  54625.714    -5.325E-22
  54625.784    -5.745E-22
  54625.853    -3.701E-22
  54625.923     8.273E-23
  54625.992     2.890E-22
  54626.062     2.880E-22
  54626.131     3.838E-23
  54626.200    -3.339E-22
  54626.270    -5.814E-22
  54626.339    -6.234E-22
  54626.409    -8.290E-22
  54626.478    -9.933E-22
  54626.547    -5.854E-22
  54626.617    -2.987E-22
  54626.686    -1.092E-23
  54626.756     2.945E-23
  54626.825    -9.554E-23
  54626.894     2.346E-22
  54626.964     6.080E-22
  54627.033     8.577E-22
  54627.103     8.986E-22
  54627.172     4.384E-22
  54627.242     2.711E-22
  54627.311     3.117E-22
  54627.380     6.020E-22
  54627.450     9.355E-22
  54627.519     8.507E-22
  54627.589     5.574E-22
  54627.658     4.314E-22
  54627.727     1.812E-22
  54627.797    -2.744E-22
  54627.866    -4.400E-22
  54627.936    -1.114E-22
  54628.005    -2.362E-22
  54628.074    -1.547E-22
  54628.144    -7.309E-23
  54628.213    -1.979E-22
  54628.283    -5.692E-22
  54628.352    -5.291E-22
  54628.422    -5.301E-22
  54628.491    -4.490E-22
  54628.560    -7.905E-23
  54628.630     1.683E-22
  54628.699     8.444E-23
  54628.769    -8.202E-23
  54628.838    -1.656E-22
  54628.907    -1.253E-22
  54628.977    -2.089E-22
  54629.046    -4.158E-22
  54629.116    -6.221E-22
  54629.185    -8.278E-22
  54629.255    -6.241E-22
  54629.324    -1.726E-22
  54629.393     3.311E-23
  54629.463    -5.062E-23
  54629.532     3.112E-23
  54629.602     1.130E-22
  54629.671    -9.493E-23
  54629.740     1.524E-22
  54629.810     7.761E-22
  54629.879     1.069E-21
  54629.949     1.320E-21
  54630.018     1.742E-21
  54630.088     1.826E-21
  54630.157     1.655E-21
  54630.226     1.232E-21
  54630.296     6.021E-22
  54630.365     6.846E-22
  54630.435     5.584E-22
  54630.504     9.757E-22
  54630.573     1.353E-21
  54630.643     1.016E-21
  54630.712     7.214E-22
  54630.782     5.534E-22
  54630.851     1.780E-22
  54630.921    -3.603E-22
  54630.990    -7.718E-22
  54631.059    -6.499E-22
  54631.129    -7.329E-22
  54631.198    -9.384E-22
  54631.268    -1.265E-21
  54631.337    -1.469E-21
  54631.407    -1.267E-21
  54631.476    -6.559E-22
  54631.545    -3.692E-22
  54631.615    -3.290E-22
  54631.684    -2.476E-22
  54631.754    -2.486E-22
  54631.823    -2.908E-22
  54631.892     2.046E-22
  54631.962     7.035E-22
  54632.031     9.958E-22
  54632.101     7.434E-22
  54632.170     3.669E-22
  54632.240     7.521E-23
  54632.309    -1.740E-22
  54632.378    -2.163E-22
  54632.448    -2.997E-22
  54632.517    -2.595E-22
  54632.587    -5.897E-22
  54632.656    -8.366E-22
  54632.726    -6.738E-22
  54632.795    -3.459E-22
  54632.864    -1.656E-23
  54632.934    -1.416E-22
  54633.003    -5.135E-22
  54633.073    -1.047E-21
  54633.142    -1.292E-21
  54633.212    -1.577E-21
  54633.281    -1.538E-21
  54633.350    -1.295E-21
  54633.420    -1.052E-21
  54633.489    -8.894E-22
  54633.559    -1.054E-21
  54633.628    -9.732E-22
  54633.698    -9.741E-22
  54633.767    -1.057E-21
  54633.836    -1.099E-21
  54633.906    -1.384E-21
  54633.975    -1.548E-21
  54634.045    -1.549E-21
  54634.114    -1.469E-21
  54634.183    -9.811E-22
  54634.253    -4.080E-22
  54634.322    -1.202E-22
  54634.392     2.982E-24
  54634.461    -1.222E-22
  54634.531    -3.296E-22
  54634.600    -2.068E-22
  54634.669    -1.251E-22
  54634.739    -1.675E-22
  54634.808    -5.804E-22
  54634.878    -1.073E-21
  54634.947    -1.318E-21
  54635.017    -9.930E-22
  54635.086    -5.844E-22
  54635.155    -3.385E-22
  54635.225    -6.685E-22
  54635.294    -5.463E-22
  54635.364    -3.003E-22
  54635.433    -5.072E-22
  54635.503    -9.183E-22
  54635.572    -1.123E-21
  54635.642    -1.328E-21
  54635.711    -1.370E-21
  54635.780    -1.289E-21
  54635.850    -9.232E-22
  54635.919    -7.605E-22
  54635.989    -9.252E-22
  54636.058    -8.853E-22
  54636.128    -7.225E-22
  54636.197    -8.873E-22
  54636.266    -7.245E-22
  54636.336    -5.612E-22
  54636.405    -1.913E-22
  54636.475     5.604E-23
  54636.544     2.627E-22
  54636.614     5.116E-22
  54636.683     8.034E-22
  54636.752     8.443E-22
  54636.822     7.176E-22
  54636.891     6.330E-22
  54636.961     6.738E-22
  54637.030     6.310E-22
  54637.100     2.131E-22
  54637.169    -3.673E-22
  54637.238    -8.613E-22
  54637.308    -1.148E-21
  54637.377    -1.312E-21
  54637.447    -1.232E-21
  54637.516    -1.110E-21
  54637.586    -1.437E-21
  54637.655    -1.964E-21
  54637.725    -2.046E-21
  54637.794    -1.926E-21
  54637.863    -1.806E-21
  54637.933    -1.645E-21
  54638.002    -1.524E-21
  54638.072    -1.363E-21
  54638.141    -1.038E-21
  54638.211    -5.881E-22
  54638.280    -3.008E-22
  54638.349    -3.018E-22
  54638.419    -6.321E-22
  54638.488    -7.153E-22
  54638.558    -7.163E-22
  54638.627    -9.630E-22
  54638.697    -1.168E-21
  54638.766    -1.373E-21
  54638.835    -1.658E-21
  54638.905    -1.212E-21
  54638.974    -4.756E-22
  54639.044    -6.364E-23
  54639.113    -1.888E-22
  54639.183    -2.724E-22
  54639.252    -3.147E-22
  54639.322    -6.040E-22
  54639.391    -8.512E-22
  54639.460    -1.179E-21
  54639.530    -1.262E-21
  54639.599    -1.466E-21
  54639.669    -1.629E-21
  54639.738    -1.142E-21
  54639.808    -1.102E-21
  54639.877    -1.185E-21
  54639.947    -1.471E-21
  54640.016    -1.512E-21
  54640.085    -1.188E-21
  54640.155    -9.031E-22
  54640.224    -5.347E-22
  54640.294     1.327E-24
  54640.363     5.414E-22
  54640.433     6.240E-22
  54640.502     2.060E-22
  54640.571    -2.923E-22
  54640.641    -5.406E-22
  54640.710    -7.061E-22
  54640.780    -6.660E-22
  54640.849    -4.613E-22
  54640.919    -3.386E-22
  54640.988    -3.808E-22
  54641.058    -2.580E-22
  54641.127    -1.349E-22
  54641.196    -9.449E-23
  54641.266     2.887E-23
  54641.335     6.938E-23
  54641.405     2.346E-22
  54641.474     6.091E-22
  54641.544     6.500E-22
  54641.613     5.235E-22
  54641.683     3.973E-22
  54641.752    -1.957E-23
  54641.821    -2.689E-22
  54641.891    -1.458E-22
  54641.960    -2.296E-22
  54642.030    -5.194E-22
  54642.099    -4.792E-22
  54642.169    -8.910E-22
  54642.238    -1.096E-21
  54642.308    -1.057E-21
  54642.377    -6.067E-22
  54642.446    -2.779E-22
  54642.516    -7.198E-23
  54642.585    -1.972E-22
  54642.655    -4.047E-22
  54642.724    -1.022E-21
  54642.794    -1.512E-21
  54642.863    -1.837E-21
  54642.933    -1.838E-21
  54643.002    -1.311E-21
  54643.072    -4.107E-22
  54643.141     2.930E-22
  54643.210     7.098E-22
  54643.280     7.088E-22
  54643.349     2.068E-22
  54643.419     3.951E-23
  54643.488     2.464E-22
  54643.558     6.630E-22
  54643.627     9.557E-22
  54643.697     6.610E-22
  54643.766     2.840E-22
  54643.835     3.353E-23
  54643.905    -3.814E-22
  54643.974    -8.759E-22
  54644.044    -9.179E-22
  54644.113    -8.779E-22
  54644.183    -5.091E-22
  54644.252    -1.797E-22
  54644.322     6.809E-23
  54644.391     5.673E-22
  54644.460     1.154E-21
  54644.530     1.365E-21
  54644.599     1.152E-21
  54644.669     6.052E-22
  54644.738    -2.091E-23
  54644.808    -3.530E-22
  54644.877    -1.058E-22
  54644.947     3.922E-22
  54645.016     1.104E-21
  54645.086     1.230E-21
  54645.155     1.144E-21
  54645.224     9.328E-22
  54645.294     8.478E-22
  54645.363     9.308E-22
  54645.433     9.298E-22
  54645.502     8.868E-22
  54645.572     8.438E-22
  54645.641     8.848E-22
  54645.711     1.263E-21
  54645.780     1.516E-21
  54645.850     1.685E-21
  54645.919     1.641E-21
  54645.988     1.259E-21
  54646.058     5.852E-22
  54646.127    -8.231E-23
  54646.197    -4.967E-22
  54646.266    -5.801E-22
  54646.336    -2.923E-22
  54646.405    -1.692E-22
  54646.475    -3.770E-22
  54646.544    -2.953E-22
  54646.614    -4.781E-23
  54646.683     2.839E-22
  54646.752     5.753E-22
  54646.822     1.036E-21
  54646.891     1.331E-21
  54646.961     1.203E-21
  54647.030     1.033E-21
  54647.100     9.901E-22
  54647.169     8.629E-22
  54647.239     2.342E-22
  54647.308     2.525E-23
  54647.378     3.573E-22
  54647.447     3.146E-22
  54647.516     2.303E-22
  54647.586     5.633E-22
  54647.655     6.880E-22
  54647.725     7.289E-22
  54647.794     4.767E-22
  54647.864     3.921E-22
  54647.933     7.679E-22
  54648.003     1.272E-21
  54648.072     1.441E-21
  54648.142     1.102E-21
  54648.211     9.321E-22
  54648.281     8.469E-22
  54648.350     8.880E-22
  54648.419     9.712E-22
  54648.489     9.702E-22
  54648.558     8.009E-22
  54648.628     5.484E-22
  54648.697     2.133E-22
  54648.767    -2.031E-22
  54648.836    -4.934E-22
  54648.906    -2.878E-22
  54648.975     2.510E-22
  54649.045     5.005E-22
  54649.114     5.414E-22
  54649.183     1.231E-22
  54649.253    -2.514E-22
  54649.322    -3.765E-22
  54649.392    -5.426E-22
  54649.461    -5.436E-22
  54649.531    -5.033E-22
  54649.600    -5.456E-22
  54649.670    -5.053E-22
  54649.739    -6.711E-22
  54649.809    -9.596E-22
  54649.878    -1.165E-21
  54649.948    -1.370E-21
  54650.017    -1.208E-21
  54650.087    -1.168E-21
  54650.156    -5.948E-22
  54650.225    -1.662E-23
  54650.295     2.320E-22
  54650.364     3.562E-22
  54650.434     2.301E-22
  54650.503    -2.061E-23
  54650.573    -1.046E-22
  54650.642     1.021E-22
  54650.712     3.095E-22
  54650.781     6.431E-22
  54650.851     6.841E-22
  54650.920     6.411E-22
  54650.990     7.241E-22
  54651.059     8.071E-22
  54651.128     8.481E-22
  54651.198     1.354E-21
  54651.267     1.395E-21
  54651.337     1.309E-21
  54651.406     1.181E-21
  54651.476     9.273E-22
  54651.545     1.264E-21
  54651.615     1.475E-21
  54651.684     1.771E-21
  54651.754     1.813E-21
  54651.823     1.175E-21
  54651.893     2.508E-22
  54651.962    -1.246E-22
  54652.032     4.058E-23
  54652.101     4.148E-22
  54652.170     7.911E-22
  54652.240     1.085E-21
  54652.309     1.422E-21
  54652.379     1.464E-21
  54652.448     1.675E-21
  54652.518     1.589E-21
  54652.587     1.631E-21
  54652.657     2.014E-21
  54652.726     1.799E-21
  54652.796     1.077E-21
  54652.865     7.811E-22
  54652.935     6.122E-22
  54653.004     6.112E-22
  54653.074     6.941E-22
  54653.143     6.931E-22
  54653.213     3.153E-22
  54653.282    -1.020E-22
  54653.351    -2.275E-22
  54653.421    -6.004E-22
  54653.490    -4.363E-22
  54653.560    -2.719E-22
  54653.629    -1.070E-22
  54653.699     3.083E-22
  54653.768     8.523E-22
  54653.838     1.189E-21
  54653.907     1.442E-21
  54653.977     1.824E-21
  54654.046     2.122E-21
  54654.116     2.422E-21
  54654.185     3.112E-21
  54654.255     3.547E-21
  54654.324     3.459E-21
  54654.394     3.633E-21
  54654.463     3.851E-21
  54654.532     3.850E-21
  54654.602     3.630E-21
  54654.671     3.629E-21
  54654.741     3.409E-21
  54654.810     2.973E-21
  54654.880     3.016E-21
  54654.949     3.493E-21
  54655.019     4.195E-21
  54655.088     4.592E-21
  54655.158     4.724E-21
  54655.227     4.679E-21
  54655.297     4.945E-21
  54655.366     5.123E-21
  54655.436     4.720E-21
  54655.505     4.144E-21
  54655.575     3.572E-21
  54655.644     3.048E-21
  54655.714     3.004E-21
  54655.783     3.263E-21
  54655.853     3.393E-21
  54655.922     3.436E-21
  54655.991     3.304E-21
  54656.061     3.129E-21
  54656.130     2.911E-21
  54656.200     3.083E-21
  54656.269     3.562E-21
  54656.339     3.868E-21
  54656.408     3.955E-21
  54656.478     3.341E-21
  54656.547     2.559E-21
  54656.617     1.786E-21
  54656.686     1.232E-21
  54656.756     1.062E-21
  54656.825     9.769E-22
  54656.895     1.060E-21
  54656.964     1.144E-21
  54657.034     5.533E-22
  54657.103     1.343E-22
  54657.173    -2.409E-22
  54657.242    -3.248E-22
  54657.312    -3.672E-22
  54657.381    -4.096E-22
  54657.451    -3.727E-23
  54657.520     1.283E-22
  54657.589    -1.639E-22
  54657.659    -3.722E-22
  54657.728    -7.035E-22
  54657.798    -6.633E-22
  54657.867    -2.923E-22
  54657.937    -5.002E-22
  54658.006    -1.118E-21
  54658.076    -1.528E-21
  54658.145    -1.610E-21
  54658.215    -1.530E-21
  54658.284    -1.449E-21
  54658.354    -1.491E-21
  54658.423    -1.451E-21
  54658.493    -1.452E-21
  54658.562    -1.126E-21
  54658.632    -7.165E-22
  54658.701    -2.214E-22
  54658.771    -2.224E-22
  54658.840    -3.063E-22
  54658.910    -2.659E-22
  54658.979     3.578E-22
  54659.049     1.114E-21
  54659.118     1.240E-21
  54659.188     1.070E-21
  54659.257     7.734E-22
  54659.327     2.275E-22
  54659.396    -2.364E-23
  54659.465    -2.324E-22
  54659.535    -2.334E-22
  54659.604    -6.823E-23
  54659.674     1.399E-23
  54659.743     3.050E-22
  54659.813     4.715E-22
  54659.882     5.543E-22
  54659.952     7.634E-22
  54660.021     6.363E-22
  54660.091     2.165E-22
  54660.160     3.827E-22
  54660.230     6.333E-22
  54660.299     3.389E-22
  54660.369    -6.178E-22
  54660.438    -1.276E-21
  54660.508    -1.807E-21
  54660.577    -1.808E-21
  54660.647    -1.483E-21
  54660.716    -1.034E-21
  54660.786    -5.825E-22
  54660.855    -3.767E-22
  54660.925    -3.363E-22
  54660.994    -7.093E-22
  54661.064    -7.515E-22
  54661.133    -4.635E-22
  54661.203    -7.535E-22
  54661.272    -7.957E-22
  54661.342    -1.166E-21
  54661.411    -1.331E-21
  54661.481    -1.168E-21
  54661.550    -1.251E-21
  54661.620    -1.006E-21
  54661.689    -8.840E-22
  54661.759    -9.672E-22
  54661.828    -8.037E-22
  54661.898    -9.692E-22
  54661.967    -1.052E-21
  54662.037    -6.005E-22
  54662.106     1.457E-22
  54662.176     7.735E-22
  54662.245     1.237E-21
  54662.314     1.236E-21
  54662.384     1.066E-21
  54662.453     6.854E-22
  54662.523     3.069E-22
  54662.592    -1.528E-22
  54662.662    -4.027E-22
  54662.731    -3.623E-22
  54662.801    -1.558E-22
  54662.870     1.348E-22
  54662.940     5.523E-22
  54663.009     9.724E-22
  54663.079     5.503E-22
  54663.148    -1.192E-22
  54663.218    -2.863E-22
  54663.287    -6.185E-22
  54663.357    -1.113E-21
  54663.426    -1.523E-21
  54663.496    -1.443E-21
  54663.565    -1.075E-21
  54663.635    -1.076E-21
  54663.704    -1.405E-21
  54663.774    -1.119E-21
  54663.843    -5.852E-22
  54663.913    -2.963E-22
  54663.982     3.534E-23
  54664.052     7.603E-23
  54664.121    -1.332E-22
  54664.191    -3.418E-22
  54664.260    -4.257E-22
  54664.330    -5.922E-22
  54664.399    -5.518E-22
  54664.469    -5.115E-22
  54664.538    -5.538E-22
  54664.608    -6.375E-22
  54664.677    -4.731E-22
  54664.747    -1.838E-22
  54664.816     3.576E-22
  54664.886     6.083E-22
  54664.955     3.137E-22
  54665.025    -3.538E-22
  54665.094    -8.918E-22
  54665.164    -8.928E-22
  54665.233    -7.703E-22
  54665.303    -3.578E-22
  54665.372    -1.928E-22
  54665.442    -2.733E-23
  54665.511    -6.998E-23
  54665.581    -2.933E-23
  54665.650     9.475E-23
  54665.720    -1.146E-22
  54665.789    -1.572E-22
  54665.859     9.175E-23
  54665.928     2.161E-22
  54665.998    -1.186E-22
  54666.067    -3.274E-22
  54666.137    -7.008E-22
  54666.206    -7.843E-22
  54666.276    -3.718E-22
  54666.345     1.334E-24
  54666.415     2.927E-22
  54666.484     5.013E-22
  54666.554     4.164E-22
  54666.623     1.643E-22
  54666.693    -2.118E-22
  54666.762    -2.959E-22
  54666.832    -4.213E-22
  54666.901    -7.943E-22
  54666.971    -1.370E-21
  54667.040    -1.575E-21
  54667.110    -1.372E-21
  54667.179    -1.291E-21
  54667.249    -1.415E-21
  54667.318    -1.252E-21
  54667.388    -1.417E-21
  54667.457    -1.907E-21
  54667.527    -2.312E-21
  54667.596    -2.394E-21
  54667.666    -2.193E-21
  54667.735    -1.463E-21
  54667.805    -6.835E-22
  54667.874    -6.235E-23
  54667.944     6.174E-23
  54668.013    -6.435E-23
  54668.083    -1.902E-22
  54668.152    -6.635E-23
  54668.222    -2.568E-23
  54668.291     3.495E-22
  54668.361     2.229E-22
  54668.430    -1.952E-22
  54668.500    -5.281E-22
  54668.569    -6.119E-22
  54668.639    -4.473E-22
  54668.708    -1.992E-22
  54668.778    -4.493E-22
  54668.847    -7.398E-22
  54668.917    -9.057E-22
  54668.986    -6.179E-22
  54669.056     8.747E-23
  54669.125     3.794E-22
  54669.195     4.203E-22
  54669.264     3.355E-22
  54669.334    -1.666E-22
  54669.403    -4.997E-22
  54669.473    -5.835E-22
  54669.542    -2.112E-22
  54669.612     1.630E-22
  54669.681     1.202E-22
  54669.751    -2.142E-22
  54669.820    -4.870E-23
  54669.890     3.371E-23
  54669.959    -1.340E-22
  54670.029    -2.182E-22
  54670.098    -2.192E-22
  54670.168    -4.279E-22
  54670.237    -6.772E-22
  54670.307    -6.369E-22
  54670.376    -4.723E-22
  54670.446    -1.827E-22
  54670.516     6.645E-23
  54670.585     3.584E-22
  54670.655     2.270E-23
  54670.724    -2.283E-22
  54670.794    -3.954E-22
  54670.863    -6.035E-22
  54670.933    -3.974E-22
  54671.002    -3.569E-22
  54671.072    -3.579E-22
  54671.141    -4.004E-22
  54671.211    -2.768E-22
  54671.280    -6.973E-23
  54671.350    -2.373E-22
  54671.419    -8.593E-22
  54671.489    -1.271E-21
  54671.558    -1.313E-21
  54671.628    -1.641E-21
  54671.697    -1.846E-21
  54671.767    -1.725E-21
  54671.836    -1.358E-21
  54671.906    -8.251E-22
  54671.975    -3.709E-22
  54672.045    -3.905E-23
  54672.114     3.363E-22
  54672.184     4.612E-22
  54672.253     8.318E-23
  54672.323    -3.344E-22
  54672.392    -4.599E-22
  54672.462    -6.266E-22
  54672.531    -2.543E-22
  54672.601    -1.721E-22
  54672.670    -8.976E-23
  54672.740    -2.157E-22
  54672.809    -4.659E-22
  54672.879    -7.566E-22
  54672.948    -8.814E-22
  54673.018    -7.999E-22
  54673.087    -8.009E-22
  54673.157    -6.366E-22
  54673.227    -5.134E-22
  54673.296    -8.864E-22
  54673.366    -7.636E-22
  54673.435    -6.406E-22
  54673.505    -6.830E-22
  54673.574    -7.666E-22
  54673.644    -6.436E-22
  54673.713    -6.860E-22
  54673.783    -6.456E-22
  54673.852    -2.733E-22
  54673.922     5.914E-23
  54673.991     1.417E-22
  54674.061     1.826E-22
  54674.130     2.235E-22
  54674.200    -1.535E-22
  54674.269    -5.698E-22
  54674.339    -6.950E-22
  54674.408    -4.475E-22
  54674.478    -2.407E-22
  54674.547    -1.168E-22
  54674.617     2.164E-22
  54674.686     2.573E-22
  54674.756    -2.864E-22
  54674.825    -7.846E-22
  54674.895    -9.918E-22
  54674.964    -1.280E-21
  54675.034    -9.526E-22
  54675.103    -4.990E-22
  54675.173    -6.657E-22
  54675.243    -7.493E-22
  54675.312    -4.190E-22
  54675.382    -1.705E-22
  54675.451     2.463E-22
  54675.521     5.813E-22
  54675.590     5.383E-22
  54675.660     2.433E-22
  54675.729    -8.686E-24
  54675.799     7.388E-23
  54675.868     3.661E-22
  54675.938     9.130E-22
  54676.007     9.543E-22
  54676.077     9.956E-22
  54676.146     1.292E-21
  54676.216     1.461E-21
  54676.285     1.162E-21
  54676.355     4.431E-22
  54676.424    -1.022E-22
  54676.494    -4.776E-22
  54676.563    -1.057E-21
  54676.633    -1.305E-21
  54676.702    -1.141E-21
  54676.772    -8.952E-22
  54676.842    -3.995E-22
  54676.911    -2.342E-22
  54676.981    -1.936E-22
  54677.050     4.331E-22
  54677.120     7.269E-22
  54677.189     7.681E-22
  54677.259     5.984E-22
  54677.328     1.774E-22
  54677.398    -3.244E-22
  54677.467    -4.086E-22
  54677.537    -4.096E-22
  54677.606    -4.106E-22
  54677.676    -4.946E-22
  54677.745    -6.200E-22
  54677.815    -9.515E-22
  54677.884    -9.113E-22
  54677.954    -3.740E-22
  54678.023     4.191E-22
  54678.093     7.551E-22
  54678.162     8.809E-22
  54678.232     7.531E-22
  54678.302     7.099E-22
  54678.371     5.824E-22
  54678.441     4.971E-22
  54678.510     3.280E-22
  54678.580     7.559E-23
  54678.649    -4.671E-22
  54678.719    -7.995E-22
  54678.788    -7.178E-22
  54678.858    -3.039E-22
  54678.927     7.058E-23
  54678.997     2.790E-22
  54679.066     1.942E-22
  54679.136    -3.079E-22
  54679.205    -5.581E-22
  54679.275    -4.346E-22
  54679.344    -2.693E-22
  54679.414     6.356E-23
  54679.484     4.821E-22
  54679.553     7.763E-22
  54679.623     1.029E-21
  54679.692     9.435E-22
  54679.762     6.466E-22
  54679.831     5.192E-22
  54679.901     4.761E-22
  54679.970     5.593E-22
  54680.040     8.961E-22
  54680.109     1.320E-21
  54680.179     1.276E-21
  54680.248     1.063E-21
  54680.318     8.075E-22
  54680.387     4.691E-22
  54680.457    -1.603E-22
  54680.526    -6.187E-22
  54680.596    -4.537E-22
  54680.666    -2.884E-22
  54680.735    -3.912E-23
  54680.805     1.272E-22
  54680.874     3.359E-22
  54680.944     6.296E-22
  54681.013     9.668E-22
  54681.083     1.306E-21
  54681.152     1.347E-21
  54681.222     1.091E-21
  54681.291     5.824E-22
  54681.361     3.709E-22
  54681.430    -7.358E-24
  54681.500    -4.252E-22
  54681.569    -5.093E-22
  54681.639    -6.347E-22
  54681.709    -7.599E-22
  54681.778    -8.436E-22
  54681.848    -7.619E-22
  54681.917    -4.728E-22
  54681.987    -1.824E-22
  54682.056    -3.917E-22
  54682.126    -6.832E-22
  54682.195    -9.322E-22
  54682.265    -9.745E-22
  54682.334    -6.447E-22
  54682.404    -2.141E-23
  54682.473     4.811E-22
  54682.543     3.538E-22
  54682.613    -6.621E-23
  54682.682    -1.925E-22
  54682.752    -6.093E-22
  54682.821    -1.024E-21
  54682.891    -1.313E-21
  54682.960    -1.232E-21
  54683.030    -1.068E-21
  54683.099    -1.110E-21
  54683.169    -8.637E-22
  54683.238    -4.503E-22
  54683.308    -4.097E-22
  54683.377    -4.107E-22
  54683.447     5.354E-24
  54683.517     4.350E-24
  54683.586     1.709E-22
  54683.656     7.171E-22
  54683.725     1.012E-21
  54683.795     1.437E-21
  54683.864     1.778E-21
  54683.934     1.137E-21
  54684.003     2.488E-22
  54684.073    -2.542E-22
  54684.142    -3.385E-22
  54684.212    -1.728E-22
  54684.281     3.515E-23
  54684.351     3.277E-22
  54684.421     6.638E-22
  54684.490     9.590E-22
  54684.560     8.309E-22
  54684.629     8.722E-22
  54684.699     7.443E-22
  54684.768     3.217E-22
  54684.838     1.528E-22
  54684.907     3.197E-22
  54684.977     6.135E-22
  54685.046     1.078E-21
  54685.116     1.247E-21
  54685.185     1.460E-21
  54685.255     1.459E-21
  54685.325     1.244E-21
  54685.394     9.884E-22
  54685.464     9.026E-22
  54685.533     5.633E-22
  54685.603     9.983E-23
  54685.672     1.407E-22
  54685.742     9.782E-23
  54685.811     1.807E-22
  54685.881     2.636E-22
  54685.950     2.626E-22
  54686.020     9.381E-23
  54686.090    -3.667E-22
  54686.159    -2.844E-22
  54686.229     1.327E-22
  54686.298     6.367E-22
  54686.368     1.059E-21
  54686.437     1.016E-21
  54686.507     8.451E-22
  54686.576     5.061E-22
  54686.646     1.686E-22
  54686.715     2.516E-22
  54686.785     2.506E-22
  54686.855    -2.110E-22
  54686.924    -8.352E-22
  54686.994    -1.454E-21
  54687.063    -1.250E-21
  54687.133    -7.969E-22
  54687.202    -3.827E-22
  54687.272    -8.037E-24
  54687.341     3.283E-23
  54687.411     3.256E-22
  54687.480     3.246E-22
  54687.550     2.981E-23
  54687.620    -4.304E-22
  54687.689    -4.314E-22
  54687.759    -1.823E-22
  54687.828     1.096E-22
  54687.898     2.479E-23
  54687.967     2.755E-22
  54688.037     9.926E-22
  54688.106     1.247E-21
  54688.176     1.203E-21
  54688.246     1.117E-21
  54688.315     5.231E-22
  54688.385    -1.078E-22
  54688.454    -6.917E-22
  54688.524    -8.997E-22
  54688.593    -4.861E-22
  54688.663     3.496E-22
  54688.732     1.195E-21
  54688.802     1.493E-21
  54688.871     1.406E-21
  54688.941     1.277E-21
  54689.011     9.361E-22
  54689.080     1.020E-21
  54689.150     1.019E-21
  54689.219     1.146E-21
  54689.289     1.614E-21
  54689.358     1.828E-21
  54689.428     2.388E-21
  54689.497     2.865E-21
  54689.567     3.126E-21
  54689.637     2.819E-21
  54689.706     2.340E-21
  54689.776     2.904E-21
  54689.845     3.870E-21
  54689.915     4.580E-21
  54689.984     4.982E-21
  54690.054     4.981E-21
  54690.123     5.386E-21
  54690.193     5.838E-21
  54690.263     6.431E-21
  54690.332     6.798E-21
  54690.402     6.567E-21
  54690.471     6.016E-21
  54690.541     5.064E-21
  54690.610     4.884E-21
  54690.680     5.062E-21
  54690.749     5.513E-21
  54690.819     5.557E-21
  54690.889     5.194E-21
  54690.958     5.058E-21
  54691.028     5.057E-21
  54691.097     4.921E-21
  54691.167     4.562E-21
  54691.236     3.938E-21
  54691.306     3.188E-21
  54691.375     3.012E-21
  54691.445     2.662E-21
  54691.515     2.228E-21
  54691.584     2.140E-21
  54691.654     2.226E-21
  54691.723     2.052E-21
  54691.793     1.664E-21
  54691.862     1.065E-21
  54691.932     7.667E-22
  54692.001     6.811E-22
  54692.071     6.378E-22
  54692.141     9.333E-22
  54692.210     8.051E-22
  54692.280     1.292E-22
  54692.349    -4.571E-22
  54692.419    -7.075E-22
  54692.488    -5.008E-22
  54692.558    -3.768E-22
  54692.627    -1.273E-22
  54692.697     1.651E-22
  54692.767     4.588E-22
  54692.836     3.735E-22
  54692.906     4.990E-22
  54692.975     7.940E-22
  54693.045     1.133E-21
  54693.114     1.817E-21
  54693.184     2.031E-21
  54693.253     1.686E-21
  54693.323     1.299E-21
  54693.393     1.341E-21
  54693.462     1.340E-21
  54693.532     1.168E-21
  54693.601     8.698E-22
  54693.671     7.839E-22
  54693.740     1.038E-21
  54693.810     1.335E-21
  54693.880     9.507E-22
  54693.949     1.035E-21
  54694.019     1.247E-21
  54694.088     1.288E-21
  54694.158     1.415E-21
  54694.227     1.500E-21
  54694.297     1.371E-21
  54694.366     1.584E-21
  54694.436     1.840E-21
  54694.506     2.012E-21
  54694.575     1.881E-21
  54694.645     1.494E-21
  54694.714     1.493E-21
  54694.784     1.364E-21
  54694.853     1.363E-21
  54694.923     1.576E-21
  54694.993     1.962E-21
  54695.062     2.176E-21
  54695.132     2.435E-21
  54695.201     2.652E-21
  54695.271     2.217E-21
  54695.340     1.613E-21
  54695.410     9.285E-22
  54695.479     6.308E-22
  54695.549     6.721E-22
  54695.619     9.255E-22
  54695.688     1.180E-21
  54695.758     1.478E-21
  54695.827     1.691E-21
  54695.897     1.433E-21
  54695.966     1.389E-21
  54696.036     1.688E-21
  54696.106     1.989E-21
  54696.175     2.117E-21
  54696.245     2.506E-21
  54696.314     3.160E-21
  54696.384     3.997E-21
  54696.453     4.085E-21
  54696.523     3.818E-21
  54696.593     3.507E-21
  54696.662     3.374E-21
  54696.732     3.549E-21
  54696.801     3.858E-21
  54696.871     4.301E-21
  54696.940     4.747E-21
  54697.010     5.016E-21
  54697.080     5.512E-21
  54697.149     6.423E-21
  54697.219     7.161E-21
  54697.288     7.439E-21
  54697.358     7.391E-21
  54697.427     7.857E-21
  54697.497     8.421E-21
  54697.567     9.037E-21
  54697.636     9.802E-21
  54697.706     1.063E-20
  54697.775     1.146E-20
  54697.845     1.250E-20
  54697.914     1.356E-20
  54697.984     1.453E-20
  54698.054     1.525E-20
  54698.123     1.625E-20
  54698.193     1.693E-20
  54698.262     1.747E-20
  54698.332     1.779E-20
  54698.401     1.784E-20
  54698.471     1.779E-20
  54698.541     1.773E-20
  54698.610     1.762E-20
  54698.680     1.784E-20
  54698.749     1.773E-20
  54698.819     1.735E-20
  54698.888     1.671E-20
  54698.958     1.540E-20
  54699.028     1.446E-20
  54699.097     1.385E-20
  54699.167     1.298E-20
  54699.236     1.208E-20
  54699.306     1.114E-20
  54699.375     1.031E-20
  54699.445     9.632E-21
  54699.515     9.152E-21
  54699.584     8.912E-21
  54699.654     8.343E-21
  54699.723     7.731E-21
  54699.793     6.753E-21
  54699.862     5.881E-21
  54699.932     4.794E-21
  54700.002     4.122E-21
  54700.071     3.899E-21
  54700.141     3.898E-21
  54700.210     3.764E-21
  54700.280     3.366E-21
  54700.349     2.926E-21
  54700.419     2.489E-21
  54700.489     2.011E-21
  54700.558     1.623E-21
  54700.628     1.236E-21
  54700.697     1.107E-21
  54700.767     1.192E-21
  54700.837     1.319E-21
  54700.906     1.446E-21
  54700.976     1.660E-21
  54701.045     1.401E-21
  54701.115     1.272E-21
  54701.184     1.186E-21
  54701.254     1.570E-21
  54701.324     1.956E-21
  54701.393     1.783E-21
  54701.463     1.310E-21
  54701.532     5.431E-22
  54701.602     7.830E-23
  54701.671    -2.163E-22
  54701.741    -3.845E-22
  54701.811    -7.604E-22
  54701.880    -7.614E-22
  54701.950    -3.458E-22
  54702.019     1.143E-22
  54702.089     3.959E-22
  54702.159     3.653E-22
  54702.228     4.270E-22
  54702.298     3.274E-22
  54702.367     3.555E-22
  54702.437     5.327E-22
  54702.506     6.246E-22
  54702.576     5.834E-22
  54702.646     3.102E-22
  54702.715     1.437E-22
  54702.785     1.690E-22
  54702.854     2.088E-22
  54702.924     3.746E-22
  54702.994     7.233E-22
  54703.063     9.262E-22
  54703.133     9.317E-22
  54703.202     1.064E-21
  54703.272     7.420E-22
  54703.341     5.814E-22
  54703.411     1.385E-22
  54703.481    -1.616E-22
  54703.550     3.843E-23
  54703.620    -3.824E-23
  54703.689     1.240E-22
  54703.759     3.242E-22
  54703.829    -1.133E-22
  54703.898    -2.122E-22
  54703.968    -1.238E-22
  54704.037    -3.290E-22
  54704.107    -2.124E-22
  54704.176    -3.977E-23
  54704.246    -1.789E-22
  54704.316     5.889E-23
  54704.385     1.035E-22
  54704.455     3.554E-22
  54704.524     2.158E-22
  54704.594    -2.112E-22
  54704.664    -6.308E-22
  54704.733    -7.908E-22
  54704.803    -8.686E-22
  54704.872    -8.836E-22
  54704.942    -5.314E-22
  54705.011    -3.812E-22
  54705.081    -3.014E-22
  54705.151    -4.982E-22
  54705.220    -6.539E-22
  54705.290    -5.285E-22
  54705.359    -3.937E-22
  54705.429    -5.535E-22
  54705.499    -1.692E-22
  54705.568     2.539E-22
  54705.638     4.832E-22
  54705.707     6.728E-22
  54705.777     9.306E-22
  54705.847     1.139E-21
  54705.916     1.253E-21
  54705.986     1.237E-21
  54706.055     9.714E-22
  54706.125     6.700E-22
  54706.194     3.629E-22
  54706.264     8.200E-23
  54706.334     8.423E-23
  54706.403     2.232E-22
  54706.473     2.832E-22
  54706.542     3.213E-22
  54706.612     1.330E-22
  54706.682    -3.148E-24
  54706.751     4.105E-23
  54706.821     1.141E-22
  54706.890     8.785E-23
  54706.960    -3.275E-23
  54707.030    -1.072E-22
  54707.099     1.352E-22
  54707.169     1.571E-22
  54707.238     1.796E-22
  54707.308     2.088E-22
  54707.378     3.440E-22
  54707.447     3.134E-22
  54707.517     3.608E-22
  54707.586     9.150E-22
  54707.656     8.732E-22
  54707.725     3.185E-23
  54707.795    -4.191E-22
  54707.865    -4.954E-22
  54707.934    -2.356E-22
  54708.004    -1.958E-22
  54708.073    -1.775E-22
  54708.143    -2.096E-22
  54708.213    -2.243E-22
  54708.282     7.074E-23
  54708.352     2.468E-22
  54708.421     4.268E-22
  54708.491     9.468E-22
  54708.561     1.169E-21
  54708.630     1.398E-21
  54708.700     1.539E-21
  54708.769     1.284E-21
  54708.839     1.105E-21
  54708.909     6.591E-22
  54708.978     3.108E-22
  54709.048     1.162E-23
  54709.117    -3.280E-22
  54709.187    -4.554E-22
  54709.257    -7.601E-22
  54709.326    -9.157E-22
  54709.396    -1.045E-21
  54709.465    -9.071E-22
  54709.535    -2.654E-22
  54709.605     2.184E-22
  54709.674     5.361E-22
  54709.744     7.075E-22
  54709.813     2.726E-22
  54709.883    -5.834E-22
  54709.953    -9.350E-22
  54710.022    -9.360E-22
  54710.092    -7.244E-22
  54710.161    -3.458E-22
  54710.231    -3.841E-24
  54710.301     1.336E-22
  54710.370    -2.310E-22
  54710.440    -4.347E-22
  54710.509    -1.409E-22
  54710.579    -1.211E-22
  54710.649    -2.851E-22
  54710.718    -4.728E-22
  54710.788    -6.316E-22
  54710.857    -4.399E-22
  54710.927    -3.253E-22
  54710.997    -7.239E-22
  54711.066    -9.808E-22
  54711.136    -6.481E-22
  54711.205    -2.749E-22
  54711.275     3.817E-22
  54711.345     8.140E-22
  54711.414     4.883E-22
  54711.484    -9.298E-23
  54711.553    -4.653E-23
  54711.623     3.989E-23
  54711.693     3.415E-22
  54711.762     3.151E-22
  54711.832     1.640E-22
  54711.901     4.354E-23
  54711.971    -1.307E-22
  54712.041    -1.584E-22
  54712.110    -3.186E-22
  54712.180    -5.912E-22
  54712.249    -6.902E-22
  54712.319    -8.187E-22
  54712.389    -1.012E-21
  54712.458    -8.238E-22
  54712.528    -8.494E-22
  54712.597    -1.312E-21
  54712.667    -1.316E-21
  54712.737    -8.489E-22
  54712.806    -5.885E-22
  54712.876    -4.440E-22
  54712.945    -1.781E-22
  54713.015    -8.804E-23
  54713.085    -3.447E-22
  54713.154    -3.504E-22
  54713.224    -1.031E-22
  54713.293    -1.909E-22
  54713.363    -3.646E-22
  54713.433    -4.621E-22
  54713.502    -4.747E-22
  54713.572    -3.617E-22
  54713.641    -3.361E-22
  54713.711    -3.508E-22
  54713.781    -1.890E-22
  54713.850     3.542E-22
  54713.920     4.783E-22
  54713.990     4.481E-22
  54714.059     2.152E-22
  54714.129     2.661E-22
  54714.198     1.529E-22
  54714.268     5.647E-23
  54714.338    -5.881E-24
  54714.407     3.393E-23
  54714.477     4.054E-22
  54714.546     8.559E-22
  54714.616     1.346E-21
  54714.686     1.203E-21
  54714.755     7.233E-22
  54714.825     2.064E-22
  54714.894     1.187E-22
  54714.964    -4.412E-23
  54715.034    -7.247E-23
  54715.103     1.889E-22
  54715.173     6.123E-22
  54715.242     8.654E-22
  54715.312     6.546E-22
  54715.382     6.180E-22
  54715.451     3.119E-22
  54715.521     1.569E-22
  54715.591    -7.223E-23
  54715.660    -4.110E-22
  54715.730    -9.592E-22
  54715.799    -1.522E-21
  54715.869    -1.590E-21
  54715.939    -1.109E-21
  54716.008    -3.977E-22
  54716.078     2.176E-22
  54716.147     7.254E-22
  54716.217     8.458E-22
  54716.287     6.978E-22
  54716.356     4.129E-22
  54716.426     4.475E-22
  54716.495     5.072E-22
  54716.565     3.632E-22
  54716.635     5.764E-22
  54716.704     8.332E-22
  54716.774     1.050E-21
  54716.844     5.117E-22
  54716.913    -2.725E-22
  54716.983    -6.516E-22
  54717.052    -7.624E-22
  54717.122    -6.676E-22
  54717.192    -3.405E-22
  54717.261     1.776E-22
  54717.331     6.172E-22
  54717.400     5.808E-22
  54717.470     7.968E-22
  54717.540     1.065E-21
  54717.609     1.074E-21
  54717.679     1.017E-21
  54717.749     7.396E-22
  54717.818     7.594E-22
  54717.888     5.726E-22
  54717.957     6.604E-22
  54718.027     8.362E-22
  54718.097     3.687E-22
  54718.166     1.174E-22
  54718.236    -7.593E-23
  54718.305    -3.867E-22
  54718.375    -1.591E-22
  54718.445     1.806E-22
  54718.514     5.048E-22
  54718.584     6.158E-22
  54718.654     7.323E-22
  54718.723     6.105E-22
  54718.793     5.008E-22
  54718.862     9.711E-22
  54718.932     1.227E-21
  54719.002     1.450E-21
  54719.071     1.334E-21
  54719.141     1.028E-21
  54719.211     6.642E-22
  54719.280     7.192E-22
  54719.350     6.928E-22
  54719.419     5.050E-22
  54719.489     3.645E-22
  54719.559    -1.736E-23
  54719.628    -3.882E-22
  54719.698    -8.433E-23
  54719.767     5.255E-22
  54719.837     4.521E-22
  54719.907     3.161E-22
  54719.976     2.501E-22
  54720.046     1.938E-22
  54720.116     3.349E-22
  54720.185     8.347E-22
  54720.255     9.471E-22
  54720.324     1.212E-21
  54720.394     1.116E-21
  54720.464     1.271E-21
  54720.533     1.177E-21
  54720.603     6.518E-22
  54720.673     3.566E-23
  54720.742    -2.874E-22
  54720.812    -4.438E-22
  54720.881    -7.406E-23
  54720.951     3.719E-22
  54721.021     6.940E-22
  54721.090     5.370E-22
  54721.160     3.326E-22
  54721.230    -1.689E-22
  54721.299     1.734E-22
  54721.369     9.144E-22
  54721.438     1.248E-21
  54721.508     1.134E-21
  54721.578     1.070E-21
  54721.647     9.227E-22
  54721.717     4.957E-22
  54721.787     7.130E-23
  54721.856    -1.487E-22
  54721.926    -6.368E-23
  54721.995    -9.375E-23
  54722.065     1.342E-22
  54722.135     2.715E-22
  54722.204     3.118E-22
  54722.274     5.009E-22
  54722.344     2.628E-22
  54722.413    -1.809E-22
  54722.483     5.956E-24
  54722.552     6.324E-22
  54722.622     8.027E-22
  54722.692     8.309E-22
  54722.761     4.821E-22
  54722.831     1.359E-22
  54722.901     3.896E-22
  54722.970     5.165E-22
  54723.040     4.559E-22
  54723.109     5.316E-22
  54723.179     7.822E-22
  54723.249     1.333E-21
  54723.318     1.369E-21
  54723.388     1.190E-21
  54723.458     1.121E-21
  54723.527     8.844E-22
  54723.597     5.882E-22
  54723.666     7.654E-22
  54723.736     1.062E-21
  54723.806     1.534E-21
  54723.875     1.548E-21
  54723.945     1.129E-21
  54724.015     1.038E-21
  54724.084     1.203E-21
  54724.154     9.909E-22
  54724.223     8.344E-22
  54724.293     4.609E-22
  54724.363     2.909E-22
  54724.432     2.693E-22
  54724.502     2.963E-22
  54724.572     6.697E-22
  54724.641     7.878E-22
  54724.711     4.595E-22
  54724.781     2.661E-22
  54724.850     4.807E-22
  54724.920     7.383E-22
  54724.989     7.797E-22
  54725.059     9.397E-22
  54725.129     1.018E-21
  54725.198     1.108E-21
  54725.268     1.129E-21
  54725.338     1.361E-21
  54725.407     1.926E-21
  54725.477     2.416E-21
  54725.547     2.381E-21
  54725.616     1.932E-21
  54725.686     1.693E-21
  54725.755     1.829E-21
  54725.825     2.069E-21
  54725.895     2.030E-21
  54725.964     2.269E-21
  54726.034     2.240E-21
  54726.104     2.148E-21
  54726.173     2.131E-21
  54726.243     1.737E-21
  54726.312     1.791E-21
  54726.382     2.299E-21
  54726.452     2.367E-21
  54726.521     2.454E-21
  54726.591     2.564E-21
  54726.661     2.630E-21
  54726.730     2.785E-21
  54726.800     3.072E-21
  54726.870     3.331E-21
  54726.939     3.710E-21
  54727.009     4.014E-21
  54727.078     4.274E-21
  54727.148     4.754E-21
  54727.218     4.793E-21
  54727.287     4.928E-21
  54727.357     5.078E-21
  54727.427     5.172E-21
  54727.496     5.421E-21
  54727.566     6.018E-21
  54727.636     6.510E-21
  54727.705     6.828E-21
  54727.775     7.404E-21
  54727.844     8.245E-21
  54727.914     9.666E-21
  54727.984     1.078E-20
  54728.053     1.128E-20
  54728.123     1.199E-20
  54728.193     1.210E-20
  54728.262     1.261E-20
  54728.332     1.352E-20
  54728.402     1.435E-20
  54728.471     1.509E-20
  54728.541     1.597E-20
  54728.611     1.698E-20
  54728.680     1.806E-20
  54728.750     1.916E-20
  54728.819     1.988E-20
  54728.889     2.010E-20
  54728.959     1.998E-20
  54729.028     1.950E-20
  54729.098     1.867E-20
  54729.168     1.835E-20
  54729.237     1.779E-20
  54729.307     1.718E-20
  54729.377     1.692E-20
  54729.446     1.646E-20
  54729.516     1.591E-20
  54729.586     1.582E-20
  54729.655     1.567E-20
  54729.725     1.443E-20
  54729.794     1.302E-20
  54729.864     1.191E-20
  54729.934     1.109E-20
  54730.003     1.014E-20
  54730.073     9.262E-21
  54730.143     8.728E-21
  54730.212     8.253E-21
  54730.282     8.227E-21
  54730.352     8.154E-21
  54730.421     7.847E-21
  54730.491     7.182E-21
  54730.561     6.834E-21
  54730.630     6.966E-21
  54730.700     7.316E-21
  54730.769     7.022E-21
  54730.839     6.997E-21
  54730.909     6.880E-21
  54730.978     6.393E-21
  54731.048     5.172E-21
  54731.118     4.298E-21
  54731.187     4.063E-21
  54731.257     4.220E-21
  54731.327     4.846E-21
  54731.396     5.656E-21
  54731.466     5.967E-21
  54731.536     5.831E-21
  54731.605     5.574E-21
  54731.675     5.716E-21
  54731.745     5.112E-21
  54731.814     4.205E-21
  54731.884     3.605E-21
  54731.953     3.682E-21
  54732.023     3.752E-21
  54732.093     4.367E-21
  54732.162     4.761E-21
  54732.232     4.755E-21
  54732.302     4.155E-21
  54732.371     3.569E-21
  54732.441     3.430E-21
  54732.511     3.577E-21
  54732.580     3.697E-21
  54732.650     3.646E-21
  54732.720     3.574E-21
  54732.789     3.533E-21
  54732.859     3.836E-21
  54732.929     4.127E-21
  54732.998     4.082E-21
  54733.068     4.140E-21
  54733.137     4.032E-21
  54733.207     4.094E-21
  54733.277     4.332E-21
  54733.346     5.086E-21
  54733.416     5.960E-21
  54733.486     6.621E-21
  54733.555     6.976E-21
  54733.625     7.577E-21
  54733.695     7.869E-21
  54733.764     8.192E-21
  54733.834     8.451E-21
  54733.904     8.719E-21
  54733.973     8.909E-21
  54734.043     9.102E-21
  54734.113     9.631E-21
  54734.182     1.051E-20
  54734.252     1.110E-20
  54734.322     1.219E-20
  54734.391     1.305E-20
  54734.461     1.401E-20
  54734.531     1.499E-20
  54734.600     1.510E-20
  54734.670     1.577E-20
  54734.739     1.675E-20
  54734.809     1.817E-20
  54734.879     1.976E-20
  54734.948     2.207E-20
  54735.018     2.481E-20
  54735.088     2.689E-20
  54735.157     2.857E-20
  54735.227     3.054E-20
  54735.297     3.251E-20
  54735.366     3.498E-20
  54735.436     3.788E-20
  54735.506     3.985E-20
  54735.575     4.216E-20
  54735.645     4.410E-20
  54735.715     4.608E-20
  54735.784     4.814E-20
  54735.854     4.969E-20
  54735.924     5.130E-20
  54735.993     5.138E-20
  54736.063     5.057E-20
  54736.133     4.986E-20
  54736.202     4.856E-20
  54736.272     4.702E-20
  54736.342     4.555E-20
  54736.411     4.418E-20
  54736.481     4.385E-20
  54736.551     4.300E-20
  54736.620     4.145E-20
  54736.690     3.936E-20
  54736.760     3.721E-20
  54736.829     3.475E-20
  54736.899     3.160E-20
  54736.969     2.901E-20
  54737.038     2.688E-20
  54737.108     2.493E-20
  54737.177     2.332E-20
  54737.247     2.198E-20
  54737.317     2.033E-20
  54737.386     1.873E-20
  54737.456     1.739E-20
  54737.526     1.610E-20
  54737.595     1.478E-20
  54737.665     1.353E-20
  54737.735     1.235E-20
  54737.804     1.148E-20
  54737.874     1.148E-20
  54737.944     1.149E-20
  54738.013     1.107E-20
  54738.083     1.074E-20
  54738.153     1.020E-20
  54738.222     8.977E-21
  54738.292     7.725E-21
  54738.362     7.050E-21
  54738.431     6.572E-21
  54738.501     6.388E-21
  54738.571     6.342E-21
  54738.640     6.250E-21
  54738.710     6.328E-21
  54738.780     5.851E-21
  54738.849     5.109E-21
  54738.919     4.865E-21
  54738.989     4.825E-21
  54739.058     4.884E-21
  54739.128     5.357E-21
  54739.198     5.664E-21
  54739.267     5.633E-21
  54739.337     5.683E-21
  54739.407     5.266E-21
  54739.476     4.566E-21
  54739.546     3.653E-21
  54739.616     2.822E-21
  54739.685     2.400E-21
  54739.755     2.572E-21
  54739.825     2.837E-21
  54739.894     3.315E-21
  54739.964     3.842E-21
  54740.034     4.247E-21
  54740.103     4.580E-21
  54740.173     4.822E-21
  54740.243     4.602E-21
  54740.312     4.371E-21
  54740.382     3.959E-21
  54740.452     3.821E-21
  54740.521     3.817E-21
  54740.591     3.242E-21
  54740.661     2.795E-21
  54740.730     2.284E-21
  54740.800     1.948E-21
  54740.870     2.013E-21
  54740.939     2.195E-21
  54741.009     2.517E-21
  54741.079     2.444E-21
  54741.148     2.074E-21
  54741.218     1.959E-21
  54741.288     1.997E-21
  54741.357     2.592E-21
  54741.427     2.621E-21
  54741.497     2.666E-21
  54741.566     2.518E-21
  54741.636     2.281E-21
  54741.706     2.240E-21
  54741.775     2.121E-21
  54741.845     2.206E-21
  54741.915     2.094E-21
  54741.984     1.852E-21
  54742.054     1.486E-21
  54742.124     1.052E-21
  54742.193     4.970E-22
  54742.263     1.618E-22
  54742.333     1.616E-22
  54742.402     4.108E-22
  54742.472     7.666E-22
  54742.542     1.215E-21
  54742.611     1.353E-21
  54742.681     9.694E-22
  54742.751     6.150E-22
  54742.820     5.525E-22
  54742.890     5.550E-22
  54742.960     7.391E-22
  54743.029     1.011E-21
  54743.099     1.053E-21
  54743.169     1.217E-21
  54743.238     1.208E-21
  54743.308     1.202E-21
  54743.378     1.372E-21
  54743.447     1.551E-21
  54743.517     1.392E-21
  54743.587     1.226E-21
  54743.657     1.182E-21
  54743.726     1.279E-21
  54743.796     1.348E-21
  54743.866     1.316E-21
  54743.935     1.737E-21
  54744.005     1.933E-21
  54744.075     1.631E-21
  54744.144     1.043E-21
  54744.214     2.274E-22
  54744.284     4.915E-23
  54744.353     2.920E-22
  54744.423     1.512E-22
  54744.493     6.583E-23
  54744.562     2.624E-22
  54744.632     2.411E-22
  54744.702     5.395E-22
  54744.771     9.638E-22
  54744.841     1.527E-21
  54744.911     2.148E-21
  54744.980     2.078E-21
  54745.050     1.711E-21
  54745.120     1.290E-21
  54745.189     1.543E-21
  54745.259     1.733E-21
  54745.329     1.489E-21
  54745.398     1.344E-21
  54745.468     1.635E-21
  54745.538     1.938E-21
  54745.607     1.998E-21
  54745.677     1.872E-21
  54745.747     1.518E-21
  54745.816     1.219E-21
  54745.886     1.152E-21
  54745.956     1.212E-21
  54746.026     1.255E-21
  54746.095     1.166E-21
  54746.165     1.302E-21
  54746.235     1.392E-21
  54746.304     1.177E-21
  54746.374     1.252E-21
  54746.444     1.518E-21
  54746.513     1.976E-21
  54746.583     2.199E-21
  54746.653     2.635E-21
  54746.722     2.767E-21
  54746.792     2.729E-21
  54746.862     2.689E-21
  54746.931     2.336E-21
  54747.001     2.055E-21
  54747.071     1.989E-21
  54747.140     1.976E-21
  54747.210     1.710E-21
  54747.280     1.325E-21
  54747.349     9.099E-22
  54747.419     7.492E-22
  54747.489     1.172E-21
  54747.559     1.578E-21
  54747.628     1.861E-21
  54747.698     2.048E-21
  54747.768     1.942E-21
  54747.837     1.670E-21
  54747.907     1.697E-21
  54747.977     1.659E-21
  54748.046     1.613E-21
  54748.116     1.443E-21
  54748.186     1.491E-21
  54748.255     1.324E-21
  54748.325     1.120E-21
  54748.395     8.676E-22
  54748.464     8.206E-22
  54748.534     6.388E-22
  54748.604    -6.273E-23
  54748.673    -7.986E-24
  54748.743     3.082E-22
  54748.813     3.976E-22
  54748.883     5.771E-22
  54748.952     5.325E-22
  54749.022     5.263E-22
  54749.092     9.513E-22
  54749.161     1.427E-21
  54749.231     1.594E-21
  54749.301     1.983E-21
  54749.370     2.202E-21
  54749.440     2.534E-21
  54749.510     2.966E-21
  54749.579     3.145E-21
  54749.649     2.756E-21
  54749.719     2.367E-21
  54749.788     2.356E-21
  54749.858     2.046E-21
  54749.928     1.488E-21
  54749.998     7.039E-22
  54750.067    -5.152E-23
  54750.137    -4.526E-23
  54750.207     4.053E-22
  54750.276     1.044E-21
  54750.346     1.603E-21
  54750.416     2.129E-21
  54750.485     2.587E-21
  54750.555     2.957E-21
  54750.625     2.920E-21
  54750.694     2.755E-21
  54750.764     2.502E-21
  54750.834     1.760E-21
  54750.903     1.281E-21
  54750.973     1.571E-21
  54751.043     1.856E-21
  54751.113     1.719E-21
  54751.182     1.599E-21
  54751.252     1.660E-21
  54751.322     1.810E-21
  54751.391     1.823E-21
  54751.461     2.048E-21
  54751.531     2.063E-21
  54751.600     2.175E-21
  54751.670     2.133E-21
  54751.740     2.246E-21
  54751.809     1.755E-21
  54751.879     1.177E-21
  54751.949     1.109E-21
  54752.019     1.363E-21
  54752.088     1.370E-21
  54752.158     1.551E-21
  54752.228     1.606E-21
  54752.297     1.539E-21
  54752.367     1.696E-21
  54752.437     1.496E-21
  54752.506     1.632E-21
  54752.576     1.533E-21
  54752.646     1.476E-21
  54752.716     1.550E-21
  54752.785     1.708E-21
  54752.855     1.698E-21
  54752.925     1.642E-21
  54752.994     1.625E-21
  54753.064     1.491E-21
  54753.134     1.797E-21
  54753.203     1.761E-21
  54753.273     1.391E-21
  54753.343     1.230E-21
  54753.412     1.222E-21
  54753.482     9.474E-22
  54753.552     7.027E-22
  54753.622     4.257E-22
  54753.691     9.313E-23
  54753.761    -2.076E-23
  54753.831     6.551E-23
  54753.900     5.292E-22
  54753.970     8.598E-22
  54754.040     1.581E-21
  54754.109     2.234E-21
  54754.179     2.504E-21
  54754.249     2.155E-21
  54754.319     1.849E-21
  54754.388     2.199E-21
  54754.458     2.328E-21
  54754.528     2.076E-21
  54754.597     1.886E-21
  54754.667     1.789E-21
  54754.737     1.726E-21
  54754.806     1.865E-21
  54754.876     2.208E-21
  54754.946     2.507E-21
  54755.016     2.109E-21
  54755.085     1.834E-21
  54755.155     1.595E-21
  54755.225     1.786E-21
  54755.294     1.978E-21
  54755.364     1.699E-21
  54755.434     1.354E-21
  54755.503     1.241E-21
  54755.573     1.301E-21
  54755.643     1.576E-21
  54755.713     1.934E-21
  54755.782     2.414E-21
  54755.852     2.545E-21
  54755.922     2.677E-21
  54755.991     2.539E-21
  54756.061     3.005E-21
  54756.131     3.200E-21
  54756.200     3.093E-21
  54756.270     3.181E-21
  54756.340     3.105E-21
  54756.410     3.074E-21
  54756.479     2.905E-21
  54756.549     2.859E-21
  54756.619     2.940E-21
  54756.688     3.058E-21
  54756.758     3.318E-21
  54756.828     3.589E-21
  54756.897     3.634E-21
  54756.967     3.628E-21
  54757.037     3.565E-21
  54757.107     3.413E-21
  54757.176     3.366E-21
  54757.246     2.842E-21
  54757.316     2.419E-21
  54757.385     2.387E-21
  54757.455     2.255E-21
  54757.525     2.304E-21
  54757.595     2.657E-21
  54757.664     2.867E-21
  54757.734     2.769E-21
  54757.804     2.540E-21
  54757.873     2.526E-21
  54757.943     2.552E-21
  54758.013     2.367E-21
  54758.082     2.419E-21
  54758.152     2.648E-21
  54758.222     2.822E-21
  54758.292     2.819E-21
  54758.361     2.651E-21
  54758.431     2.932E-21
  54758.501     3.433E-21
  54758.570     3.891E-21
  54758.640     4.625E-21
  54758.710     4.905E-21
  54758.780     4.813E-21
  54758.849     4.885E-21
  54758.919     4.860E-21
  54758.989     4.707E-21
  54759.058     4.785E-21
  54759.128     4.648E-21
  54759.198     4.753E-21
  54759.268     4.818E-21
  54759.337     4.662E-21
  54759.407     4.538E-21
  54759.477     4.886E-21
  54759.546     5.464E-21
  54759.616     5.998E-21
  54759.686     6.212E-21
  54759.755     6.573E-21
  54759.825     6.992E-21
  54759.895     7.704E-21
  54759.965     8.329E-21
  54760.034     8.238E-21
  54760.104     8.103E-21
  54760.174     7.874E-21
  54760.243     8.206E-21
  54760.313     8.293E-21
  54760.383     8.911E-21
  54760.453     9.934E-21
  54760.522     1.084E-20
  54760.592     1.202E-20
  54760.662     1.299E-20
  54760.731     1.359E-20
  54760.801     1.424E-20
  54760.871     1.501E-20
  54760.941     1.595E-20
  54761.010     1.704E-20
  54761.080     1.856E-20
  54761.150     1.979E-20
  54761.219     2.133E-20
  54761.289     2.395E-20
  54761.359     2.678E-20
  54761.429     2.922E-20
  54761.498     3.158E-20
  54761.568     3.384E-20
  54761.638     3.623E-20
  54761.707     3.846E-20
  54761.777     4.069E-20
  54761.847     4.286E-20
  54761.917     4.496E-20
  54761.986     4.683E-20
  54762.056     4.806E-20
  54762.126     4.949E-20
  54762.195     5.102E-20
  54762.265     5.307E-20
  54762.335     5.458E-20
  54762.405     5.495E-20
  54762.474     5.465E-20
  54762.544     5.376E-20
  54762.614     5.229E-20
  54762.683     5.098E-20
  54762.753     4.962E-20
  54762.823     4.837E-20
  54762.893     4.657E-20
  54762.962     4.503E-20
  54763.032     4.346E-20
  54763.102     4.152E-20
  54763.171     3.934E-20
  54763.241     3.805E-20
  54763.311     3.574E-20
  54763.381     3.346E-20
  54763.450     3.098E-20
  54763.520     2.901E-20
  54763.590     2.741E-20
  54763.660     2.606E-20
  54763.729     2.475E-20
  54763.799     2.347E-20
  54763.869     2.278E-20
  54763.938     2.174E-20
  54764.008     2.071E-20
  54764.078     2.004E-20
  54764.148     1.907E-20
  54764.217     1.817E-20
  54764.287     1.738E-20
  54764.357     1.629E-20
  54764.426     1.532E-20
  54764.496     1.504E-20
  54764.566     1.527E-20
  54764.636     1.561E-20
  54764.705     1.566E-20
  54764.775     1.610E-20
  54764.845     1.651E-20
  54764.914     1.681E-20
  54764.984     1.666E-20
  54765.054     1.633E-20
  54765.124     1.667E-20
  54765.193     1.697E-20
  54765.263     1.735E-20
  54765.333     1.763E-20
  54765.403     1.722E-20
  54765.472     1.743E-20
  54765.542     1.825E-20
  54765.612     1.914E-20
  54765.681     1.954E-20
  54765.751     1.965E-20
  54765.821     2.011E-20
  54765.891     2.121E-20
  54765.960     2.221E-20
  54766.030     2.322E-20
  54766.100     2.405E-20
  54766.170     2.537E-20
  54766.239     2.673E-20
  54766.309     2.768E-20
  54766.379     2.860E-20
  54766.448     2.987E-20
  54766.518     3.128E-20
  54766.588     3.314E-20
  54766.658     3.554E-20
  54766.727     3.833E-20
  54766.797     4.158E-20
  54766.867     4.539E-20
  54766.936     4.920E-20
  54767.006     5.355E-20
  54767.076     5.834E-20
  54767.146     6.386E-20
  54767.215     6.705E-20
  54767.285     7.654E-20
  54767.355     8.201E-20
  54767.425     8.746E-20
  54767.494     9.519E-20
  54767.564     1.007E-19
  54767.634     1.056E-19
  54767.704     1.095E-19
  54767.773     1.119E-19
  54767.843     1.132E-19
  54767.913     1.142E-19
  54767.982     1.141E-19
  54768.052     1.133E-19
  54768.122     1.117E-19
  54768.192     1.090E-19
  54768.261     1.057E-19
  54768.331     1.022E-19
  54768.401     9.981E-20
  54768.471     9.556E-20
  54768.540     9.036E-20
  54768.610     8.438E-20
  54768.680     7.912E-20
  54768.749     7.493E-20
  54768.819     6.946E-20
  54768.889     6.438E-20
  54768.959     6.078E-20
  54769.028     5.683E-20
  54769.098     5.334E-20
  54769.168     5.028E-20
  54769.238     4.716E-20
  54769.307     4.345E-20
  54769.377     4.005E-20
  54769.447     3.713E-20
  54769.516     3.527E-20
  54769.586     3.340E-20
  54769.656     3.133E-20
  54769.726     2.907E-20
  54769.795     2.688E-20
  54769.865     2.512E-20
  54769.935     2.379E-20
  54770.005     2.277E-20
  54770.074     2.151E-20
  54770.144     2.028E-20
  54770.214     1.952E-20
  54770.284     1.869E-20
  54770.353     1.799E-20
  54770.423     1.713E-20
  54770.493     1.634E-20
  54770.563     1.556E-20
  54770.632     1.479E-20
  54770.702     1.432E-20
  54770.772     1.364E-20
  54770.841     1.298E-20
  54770.911     1.274E-20
  54770.981     1.274E-20
  54771.051     1.284E-20
  54771.120     1.300E-20
  54771.190     1.277E-20
  54771.260     1.241E-20
  54771.330     1.175E-20
  54771.399     1.087E-20
  54771.469     9.894E-21
  54771.539     8.951E-21
  54771.609     8.410E-21
  54771.678     8.318E-21
  54771.748     8.102E-21
  54771.818     7.580E-21
  54771.888     6.886E-21
  54771.957     6.182E-21
  54772.027     5.901E-21
  54772.097     5.902E-21
  54772.166     5.560E-21
  54772.236     5.364E-21
  54772.306     5.133E-21
  54772.376     4.995E-21
  54772.445     5.324E-21
  54772.515     5.219E-21
  54772.585     5.343E-21
  54772.655     5.823E-21
  54772.724     6.141E-21
  54772.794     5.746E-21
  54772.864     4.991E-21
  54772.934     4.831E-21
  54773.003     4.830E-21
  54773.073     4.861E-21
  54773.143     4.528E-21
  54773.213     4.081E-21
  54773.282     4.145E-21
  54773.352     4.348E-21
  54773.422     4.453E-21
  54773.492     4.081E-21
  54773.561     3.777E-21
  54773.631     3.606E-21
  54773.701     4.118E-21
  54773.770     4.816E-21
  54773.840     5.161E-21
  54773.910     4.917E-21
  54773.980     4.632E-21
  54774.049     4.315E-21
  54774.119     4.271E-21
  54774.189     4.441E-21
  54774.259     4.032E-21
  54774.328     3.953E-21
  54774.398     4.043E-21
  54774.468     4.065E-21
  54774.538     4.211E-21
  54774.607     4.315E-21
  54774.677     4.319E-21
  54774.747     4.284E-21
  54774.817     4.336E-21
  54774.886     4.219E-21
  54774.956     4.013E-21
  54775.026     3.797E-21
  54775.096     3.784E-21
  54775.165     3.878E-21
  54775.235     4.118E-21
  54775.305     4.583E-21
  54775.375     4.696E-21
  54775.444     4.752E-21
  54775.514     4.278E-21
  54775.584     3.324E-21
  54775.654     2.685E-21
  54775.723     2.700E-21
  54775.793     2.630E-21
  54775.863     2.500E-21
  54775.933     2.768E-21
  54776.002     3.488E-21
  54776.072     3.861E-21
  54776.142     3.983E-21
  54776.212     3.745E-21
  54776.281     2.989E-21
  54776.351     2.705E-21
  54776.421     3.034E-21
  54776.491     3.161E-21
  54776.560     2.994E-21
  54776.630     2.784E-21
  54776.700     2.441E-21
  54776.770     2.266E-21
  54776.839     2.520E-21
  54776.909     2.763E-21
  54776.979     2.901E-21
  54777.049     2.961E-21
  54777.118     3.015E-21
  54777.188     3.347E-21
  54777.258     3.349E-21
  54777.328     3.164E-21
  54777.397     3.235E-21
  54777.467     3.224E-21
  54777.537     3.045E-21
  54777.607     3.051E-21
  54777.676     3.374E-21
  54777.746     3.870E-21
  54777.816     4.143E-21
  54777.886     4.065E-21
  54777.955     4.071E-21
  54778.025     3.839E-21
  54778.095     3.745E-21
  54778.165     3.702E-21
  54778.234     3.784E-21
  54778.304     4.218E-21
  54778.374     4.494E-21
  54778.444     4.369E-21
  54778.513     4.334E-21
  54778.583     4.099E-21
  54778.653     3.506E-21
  54778.723     3.448E-21
  54778.792     3.663E-21
  54778.862     4.200E-21
  54778.932     4.704E-21
  54779.002     5.169E-21
  54779.071     4.938E-21
  54779.141     4.252E-21
  54779.211     3.704E-21
  54779.281     3.484E-21
  54779.350     3.619E-21
  54779.420     4.038E-21
  54779.490     3.932E-21
  54779.560     3.585E-21
  54779.629     3.867E-21
  54779.699     4.378E-21
  54779.769     4.762E-21
  54779.839     4.503E-21
  54779.908     4.059E-21
  54779.978     3.640E-21
  54780.048     3.501E-21
  54780.118     3.625E-21
  54780.187     3.575E-21
  54780.257     3.389E-21
  54780.327     3.275E-21
  54780.397     3.569E-21
  54780.466     3.646E-21
  54780.536     3.868E-21
  54780.606     4.279E-21
  54780.676     4.735E-21
  54780.745     4.995E-21
  54780.815     5.090E-21
  54780.885     4.685E-21
  54780.955     4.232E-21
  54781.025     4.141E-21
  54781.094     3.923E-21
  54781.164     3.894E-21
  54781.234     4.064E-21
  54781.304     4.474E-21
  54781.373     5.130E-21
  54781.443     5.102E-21
  54781.513     4.842E-21
  54781.583     4.338E-21
  54781.652     3.907E-21
  54781.722     3.922E-21
  54781.792     3.705E-21
  54781.862     3.363E-21
  54781.931     3.473E-21
  54782.001     3.890E-21
  54782.071     4.411E-21
  54782.141     4.517E-21
  54782.210     4.775E-21
  54782.280     4.799E-21
  54782.350     4.768E-21
  54782.420     4.710E-21
  54782.489     4.693E-21
  54782.559     4.528E-21
  54782.629     4.232E-21
  54782.699     4.366E-21
  54782.769     5.010E-21
  54782.838     5.254E-21
  54782.908     5.354E-21
  54782.978     5.173E-21
  54783.048     5.272E-21
  54783.117     5.742E-21
  54783.187     5.967E-21
  54783.257     5.762E-21
  54783.327     5.248E-21
  54783.396     4.431E-21
  54783.466     4.304E-21
  54783.536     4.528E-21
  54783.606     4.931E-21
  54783.675     5.201E-21
  54783.745     5.556E-21
  54783.815     6.042E-21
  54783.885     6.211E-21
  54783.955     6.627E-21
  54784.024     6.845E-21
  54784.094     6.988E-21
  54784.164     6.869E-21
  54784.234     6.905E-21
  54784.303     7.125E-21
  54784.373     6.933E-21
  54784.443     6.653E-21
  54784.513     6.547E-21
  54784.582     6.821E-21
  54784.652     6.773E-21
  54784.722     6.793E-21
  54784.792     7.195E-21
  54784.861     7.476E-21
  54784.931     7.779E-21
  54785.001     7.816E-21
  54785.071     7.448E-21
  54785.141     7.096E-21
  54785.210     7.288E-21
  54785.280     7.914E-21
  54785.350     8.612E-21
  54785.420     9.298E-21
  54785.489     9.422E-21
  54785.559     9.249E-21
  54785.629     9.111E-21
  54785.699     9.358E-21
  54785.768     9.415E-21
  54785.838     9.560E-21
  54785.908     9.942E-21
  54785.978     1.003E-20
  54786.048     9.922E-21
  54786.117     9.908E-21
  54786.187     1.024E-20
  54786.257     1.031E-20
  54786.327     1.011E-20
  54786.396     9.764E-21
  54786.466     9.478E-21
  54786.536     9.630E-21
  54786.606     1.029E-20
  54786.675     1.145E-20
  54786.745     1.245E-20
  54786.815     1.296E-20
  54786.885     1.347E-20
  54786.955     1.367E-20
  54787.024     1.381E-20
  54787.094     1.426E-20
  54787.164     1.483E-20
  54787.234     1.561E-20
  54787.303     1.661E-20
  54787.373     1.807E-20
  54787.443     1.947E-20
  54787.513     2.081E-20
  54787.583     2.159E-20
  54787.652     2.225E-20
  54787.722     2.355E-20
  54787.792     2.548E-20
  54787.862     2.735E-20
  54787.931     2.875E-20
  54788.001     2.999E-20
  54788.071     3.161E-20
  54788.141     3.359E-20
  54788.211     3.626E-20
  54788.280     3.867E-20
  54788.350     4.222E-20
  54788.420     4.584E-20
  54788.490     4.957E-20
  54788.559     5.382E-20
  54788.629     5.808E-20
  54788.699     6.284E-20
  54788.769     6.695E-20
  54788.838     7.253E-20
  54788.908     7.862E-20
  54788.978     8.461E-20
  54789.048     9.009E-20
  54789.118     9.737E-20
  54789.187     1.029E-19
  54789.257     1.079E-19
  54789.327     1.122E-19
  54789.397     1.164E-19
  54789.466     1.203E-19
  54789.536     1.238E-19
  54789.606     1.261E-19
  54789.676     1.269E-19
  54789.746     1.267E-19
  54789.815     1.258E-19
  54789.885     1.244E-19
  54789.955     1.220E-19
  54790.025     1.194E-19
  54790.094     1.165E-19
  54790.164     1.130E-19
  54790.234     1.091E-19
  54790.304     1.052E-19
  54790.374     1.008E-19
  54790.443     9.633E-20
  54790.513     9.082E-20
  54790.583     8.612E-20
  54790.653     8.230E-20
  54790.722     7.854E-20
  54790.792     7.399E-20
  54790.862     6.999E-20
  54790.932     6.654E-20
  54791.002     6.345E-20
  54791.071     5.916E-20
  54791.141     5.648E-20
  54791.211     5.428E-20
  54791.281     5.201E-20
  54791.351     4.993E-20
  54791.420     4.818E-20
  54791.490     4.704E-20
  54791.560     4.611E-20
  54791.630     4.564E-20
  54791.699     4.537E-20
  54791.769     4.517E-20
  54791.839     4.534E-20
  54791.909     4.524E-20
  54791.979     4.550E-20
  54792.048     4.558E-20
  54792.118     4.559E-20
  54792.188     4.584E-20
  54792.258     4.601E-20
  54792.327     4.617E-20
  54792.397     4.693E-20
  54792.467     4.875E-20
  54792.537     5.069E-20
  54792.607     5.222E-20
  54792.676     5.378E-20
  54792.746     5.583E-20
  54792.816     5.847E-20
  54792.886     6.120E-20
  54792.956     6.319E-20
  54793.025     6.707E-20
  54793.095     7.151E-20
  54793.165     7.725E-20
  54793.235     8.107E-20
  54793.304     8.649E-20
  54793.374     9.201E-20
  54793.444     9.961E-20
  54793.514     1.066E-19
  54793.584     1.146E-19
  54793.653     1.224E-19
  54793.723     1.305E-19
  54793.793     1.400E-19
  54793.863     1.508E-19
  54793.933     1.589E-19
  54794.002     1.674E-19
  54794.072     1.761E-19
  54794.142     1.837E-19
  54794.212     1.908E-19
  54794.282     1.965E-19
  54794.351     2.012E-19
  54794.421     2.048E-19
  54794.491     2.068E-19
  54794.561     2.072E-19
  54794.630     2.048E-19
  54794.700     2.010E-19
  54794.770     1.949E-19
  54794.840     1.868E-19
  54794.910     1.786E-19
  54794.979     1.703E-19
  54795.049     1.607E-19
  54795.119     1.514E-19
  54795.189     1.414E-19
  54795.259     1.326E-19
  54795.328     1.239E-19
  54795.398     1.157E-19
  54795.468     1.081E-19
  54795.538     1.009E-19
  54795.608     9.457E-20
  54795.677     8.762E-20
  54795.747     8.101E-20
  54795.817     7.580E-20
  54795.887     6.818E-20
  54795.956     6.307E-20
  54796.026     6.020E-20
  54796.096     5.611E-20
  54796.166     5.223E-20
  54796.236     4.910E-20
  54796.305     4.662E-20
  54796.375     4.473E-20
  54796.445     4.247E-20
  54796.515     4.018E-20
  54796.585     3.821E-20
  54796.654     3.649E-20
  54796.724     3.501E-20
  54796.794     3.292E-20
  54796.864     3.057E-20
  54796.934     2.892E-20
  54797.003     2.783E-20
  54797.073     2.689E-20
  54797.143     2.578E-20
  54797.213     2.461E-20
  54797.283     2.377E-20
  54797.352     2.299E-20
  54797.422     2.270E-20
  54797.492     2.207E-20
  54797.562     2.105E-20
  54797.632     2.048E-20
  54797.701     2.013E-20
  54797.771     1.938E-20
  54797.841     1.896E-20
  54797.911     1.824E-20
  54797.981     1.725E-20
  54798.050     1.674E-20
  54798.120     1.682E-20
  54798.190     1.668E-20
  54798.260     1.632E-20
  54798.330     1.579E-20
  54798.399     1.489E-20
  54798.469     1.430E-20
  54798.539     1.387E-20
  54798.609     1.372E-20
  54798.678     1.346E-20
  54798.748     1.310E-20
  54798.818     1.227E-20
  54798.888     1.174E-20
  54798.958     1.189E-20
  54799.027     1.226E-20
  54799.097     1.207E-20
  54799.167     1.142E-20
  54799.237     1.057E-20
  54799.307     1.005E-20
  54799.376     9.901E-21
  54799.446     9.707E-21
  54799.516     9.614E-21
  54799.586     9.669E-21
  54799.656     9.434E-21
  54799.725     9.350E-21
  54799.795     9.756E-21
  54799.865     9.969E-21
  54799.935     9.971E-21
  54800.005     1.004E-20
  54800.074     9.419E-21
  54800.144     9.058E-21
  54800.214     9.057E-21
  54800.284     9.261E-21
  54800.354     9.467E-21
  54800.424     9.342E-21
  54800.493     8.592E-21
  54800.563     8.131E-21
  54800.633     8.620E-21
  54800.703     9.790E-21
  54800.773     1.059E-20
  54800.842     1.065E-20
  54800.912     1.026E-20
  54800.982     9.461E-21
  54801.052     8.916E-21
  54801.122     8.705E-21
  54801.191     8.439E-21
  54801.261     8.315E-21
  54801.331     8.447E-21
  54801.401     8.741E-21
  54801.471     8.896E-21
  54801.540     9.203E-21
  54801.610     9.174E-21
  54801.680     8.980E-21
  54801.750     8.907E-21
  54801.820     8.832E-21
  54801.889     8.629E-21
  54801.959     8.441E-21
  54802.029     8.411E-21
  54802.099     8.521E-21
  54802.169     8.323E-21
  54802.238     8.413E-21
  54802.308     7.978E-21
  54802.378     7.748E-21
  54802.448     8.006E-21
  54802.518     8.931E-21
  54802.587     9.508E-21
  54802.657     9.309E-21
  54802.727     8.825E-21
  54802.797     7.804E-21
  54802.867     6.930E-21
  54802.936     7.048E-21
  54803.006     7.591E-21
  54803.076     7.619E-21
  54803.146     7.468E-21
  54803.216     7.570E-21
  54803.286     8.116E-21
  54803.355     8.476E-21
  54803.425     8.058E-21
  54803.495     7.392E-21
  54803.565     7.193E-21
  54803.635     7.034E-21
  54803.704     6.827E-21
  54803.774     7.193E-21
  54803.844     7.699E-21
  54803.914     8.068E-21
  54803.984     8.370E-21
  54804.053     8.156E-21
  54804.123     8.271E-21
  54804.193     8.701E-21
  54804.263     9.410E-21
  54804.333     9.829E-21
  54804.403     9.822E-21
  54804.472     9.585E-21
  54804.542     9.702E-21
  54804.612     9.573E-21
  54804.682     9.601E-21
  54804.752     9.722E-21
  54804.821     9.976E-21
  54804.891     1.002E-20
  54804.961     1.001E-20
  54805.031     1.024E-20
  54805.101     1.032E-20
  54805.170     1.016E-20
  54805.240     1.002E-20
  54805.310     1.026E-20
  54805.380     1.067E-20
  54805.450     1.086E-20
  54805.520     1.136E-20
  54805.589     1.176E-20
  54805.659     1.166E-20
  54805.729     1.150E-20
  54805.799     1.169E-20
  54805.869     1.249E-20
  54805.938     1.295E-20
  54806.008     1.329E-20
  54806.078     1.320E-20
  54806.148     1.322E-20
  54806.218     1.314E-20
  54806.287     1.319E-20
  54806.357     1.355E-20
  54806.427     1.392E-20
  54806.497     1.494E-20
  54806.567     1.549E-20
  54806.637     1.564E-20
  54806.706     1.591E-20
  54806.776     1.596E-20
  54806.846     1.610E-20
  54806.916     1.584E-20
  54806.986     1.557E-20
  54807.055     1.560E-20
  54807.125     1.553E-20
  54807.195     1.551E-20
  54807.265     1.561E-20
  54807.335     1.609E-20
  54807.405     1.677E-20
  54807.474     1.719E-20
  54807.544     1.752E-20
  54807.614     1.766E-20
  54807.684     1.748E-20
  54807.754     1.687E-20
  54807.823     1.692E-20
  54807.893     1.755E-20
  54807.963     1.832E-20
  54808.033     1.920E-20
  54808.103     2.014E-20
  54808.173     2.029E-20
  54808.242     2.016E-20
  54808.312     2.069E-20
  54808.382     2.183E-20
  54808.452     2.308E-20
  54808.522     2.366E-20
  54808.591     2.455E-20
  54808.661     2.560E-20
  54808.731     2.676E-20
  54808.801     2.790E-20
  54808.871     2.883E-20
  54808.941     2.970E-20
  54809.010     2.980E-20
  54809.080     3.073E-20
  54809.150     3.208E-20
  54809.220     3.364E-20
  54809.290     3.559E-20
  54809.360     3.803E-20
  54809.429     3.971E-20
  54809.499     4.214E-20
  54809.569     4.469E-20
  54809.639     4.736E-20
  54809.709     5.039E-20
  54809.778     5.340E-20
  54809.848     5.673E-20
  54809.918     6.000E-20
  54809.988     6.294E-20
  54810.058     6.557E-20
  54810.128     6.998E-20
  54810.197     7.499E-20
  54810.267     7.927E-20
  54810.337     8.441E-20
  54810.407     9.032E-20
  54810.477     9.859E-20
  54810.547     1.065E-19
  54810.616     1.145E-19
  54810.686     1.232E-19
  54810.756     1.331E-19
  54810.826     1.435E-19
  54810.896     1.562E-19
  54810.965     1.672E-19
  54811.035     1.783E-19
  54811.105     1.889E-19
  54811.175     1.991E-19
  54811.245     2.089E-19
  54811.315     2.176E-19
  54811.384     2.250E-19
  54811.454     2.311E-19
  54811.524     2.347E-19
  54811.594     2.360E-19
  54811.664     2.355E-19
  54811.734     2.336E-19
  54811.803     2.312E-19
  54811.873     2.265E-19
  54811.943     2.206E-19
  54812.013     2.148E-19
  54812.083     2.076E-19
  54812.153     1.992E-19
  54812.222     1.911E-19
  54812.292     1.828E-19
  54812.362     1.742E-19
  54812.432     1.652E-19
  54812.502     1.569E-19
  54812.572     1.481E-19
  54812.641     1.392E-19
  54812.711     1.335E-19
  54812.781     1.287E-19
  54812.851     1.244E-19
  54812.921     1.206E-19
  54812.990     1.172E-19
  54813.060     1.145E-19
  54813.130     1.130E-19
  54813.200     1.120E-19
  54813.270     1.118E-19
  54813.340     1.111E-19
  54813.409     1.109E-19
  54813.479     1.108E-19
  54813.549     1.116E-19
  54813.619     1.139E-19
  54813.689     1.169E-19
  54813.759     1.205E-19
  54813.828     1.254E-19
  54813.898     1.310E-19
  54813.968     1.370E-19
  54814.038     1.455E-19
  54814.108     1.541E-19
  54814.178     1.633E-19
  54814.247     1.735E-19
  54814.317     1.844E-19
  54814.387     1.947E-19
  54814.457     2.056E-19
  54814.527     2.182E-19
  54814.597     2.309E-19
  54814.666     2.429E-19
  54814.736     2.525E-19
  54814.806     2.608E-19
  54814.876     2.677E-19
  54814.946     2.723E-19
  54815.016     2.766E-19
  54815.085     2.779E-19
  54815.155     2.768E-19
  54815.225     2.732E-19
  54815.295     2.690E-19
  54815.365     2.605E-19
  54815.435     2.525E-19
  54815.505     2.423E-19
  54815.574     2.308E-19
  54815.644     2.181E-19
  54815.714     2.053E-19
  54815.784     1.944E-19
  54815.854     1.840E-19
  54815.924     1.733E-19
  54815.993     1.627E-19
  54816.063     1.514E-19
  54816.133     1.395E-19
  54816.203     1.295E-19
  54816.273     1.204E-19
  54816.343     1.128E-19
  54816.412     1.056E-19
  54816.482     9.949E-20
  54816.552     9.322E-20
  54816.622     8.781E-20
  54816.692     8.283E-20
  54816.762     7.841E-20
  54816.831     7.422E-20
  54816.901     7.015E-20
  54816.971     6.648E-20
  54817.041     6.314E-20
  54817.111     5.981E-20
  54817.181     5.753E-20
  54817.250     5.523E-20
  54817.320     5.304E-20
  54817.390     5.064E-20
  54817.460     4.814E-20
  54817.530     4.616E-20
  54817.600     4.444E-20
  54817.670     4.303E-20
  54817.739     4.137E-20
  54817.809     3.996E-20
  54817.879     3.913E-20
  54817.949     3.873E-20
  54818.019     3.765E-20
  54818.089     3.597E-20
  54818.158     3.356E-20
  54818.228     3.201E-20
  54818.298     3.129E-20
  54818.368     3.041E-20
  54818.438     2.994E-20
  54818.508     2.935E-20
  54818.577     2.840E-20
  54818.647     2.738E-20
  54818.717     2.632E-20
  54818.787     2.597E-20
  54818.857     2.481E-20
  54818.927     2.362E-20
  54818.997     2.309E-20
  54819.066     2.256E-20
  54819.136     2.215E-20
  54819.206     2.190E-20
  54819.276     2.167E-20
  54819.346     2.087E-20
  54819.416     1.995E-20
  54819.485     1.933E-20
  54819.555     1.911E-20
  54819.625     1.912E-20
  54819.695     1.924E-20
  54819.765     1.937E-20
  54819.835     1.925E-20
  54819.905     1.894E-20
  54819.974     1.894E-20
  54820.044     1.894E-20
  54820.114     1.890E-20
  54820.184     1.914E-20
  54820.254     1.899E-20
  54820.324     1.853E-20
  54820.393     1.824E-20
  54820.463     1.790E-20
  54820.533     1.755E-20
  54820.603     1.793E-20
  54820.673     1.871E-20
  54820.743     1.912E-20
  54820.813     1.903E-20
  54820.882     1.852E-20
  54820.952     1.816E-20
  54821.022     1.764E-20
  54821.092     1.703E-20
  54821.162     1.648E-20
  54821.232     1.591E-20
  54821.301     1.625E-20
  54821.371     1.649E-20
  54821.441     1.653E-20
  54821.511     1.711E-20
  54821.581     1.768E-20
  54821.651     1.772E-20
  54821.721     1.694E-20
  54821.790     1.634E-20
  54821.860     1.633E-20
  54821.930     1.693E-20
  54822.000     1.766E-20
  54822.070     1.815E-20
  54822.140     1.849E-20
  54822.210     1.871E-20
  54822.279     1.872E-20
  54822.349     1.813E-20
  54822.419     1.774E-20
  54822.489     1.774E-20
  54822.559     1.850E-20
  54822.629     1.953E-20
  54822.698     1.993E-20
  54822.768     2.047E-20
  54822.838     2.077E-20
  54822.908     2.082E-20
  54822.978     2.097E-20
  54823.048     2.149E-20
  54823.118     2.178E-20
  54823.187     2.195E-20
  54823.257     2.192E-20
  54823.327     2.199E-20
  54823.397     2.272E-20
  54823.467     2.321E-20
  54823.537     2.349E-20
  54823.607     2.466E-20
  54823.676     2.616E-20
  54823.746     2.782E-20
  54823.816     2.910E-20
  54823.886     2.968E-20
  54823.956     3.001E-20
  54824.026     3.057E-20
  54824.096     3.119E-20
  54824.165     3.202E-20
  54824.235     3.251E-20
  54824.305     3.284E-20
  54824.375     3.331E-20
  54824.445     3.405E-20
  54824.515     3.507E-20
  54824.585     3.663E-20
  54824.654     3.825E-20
  54824.724     4.049E-20
  54824.794     4.269E-20
  54824.864     4.497E-20
  54824.934     4.704E-20
  54825.004     4.872E-20
  54825.074     5.048E-20
  54825.143     5.183E-20
  54825.213     5.337E-20
  54825.283     5.550E-20
  54825.353     5.814E-20
  54825.423     6.111E-20
  54825.493     6.451E-20
  54825.563     6.790E-20
  54825.632     7.108E-20
  54825.702     7.638E-20
  54825.772     8.021E-20
  54825.842     8.508E-20
  54825.912     8.913E-20
  54825.982     9.576E-20
  54826.052     1.014E-19
  54826.121     1.068E-19
  54826.191     1.133E-19
  54826.261     1.207E-19
  54826.331     1.288E-19
  54826.401     1.366E-19
  54826.471     1.449E-19
  54826.541     1.530E-19
  54826.610     1.626E-19
  54826.680     1.739E-19
  54826.750     1.872E-19
  54826.820     2.020E-19
  54826.890     2.173E-19
  54826.960     2.325E-19
  54827.030     2.476E-19
  54827.100     2.633E-19
  54827.169     2.839E-19
  54827.239     2.983E-19
  54827.309     3.115E-19
  54827.379     3.230E-19
  54827.449     3.330E-19
  54827.519     3.409E-19
  54827.589     3.467E-19
  54827.658     3.493E-19
  54827.728     3.497E-19
  54827.798     3.477E-19
  54827.868     3.438E-19
  54827.938     3.388E-19
  54828.008     3.322E-19
  54828.078     3.236E-19
  54828.147     3.152E-19
  54828.217     3.052E-19
  54828.287     2.933E-19
  54828.357     2.819E-19
  54828.427     2.709E-19
  54828.497     2.610E-19
  54828.567     2.538E-19
  54828.637     2.461E-19
  54828.706     2.396E-19
  54828.776     2.332E-19
  54828.846     2.281E-19
  54828.916     2.252E-19
  54828.986     2.240E-19
  54829.056     2.243E-19
  54829.126     2.263E-19
  54829.195     2.295E-19
  54829.265     2.334E-19
  54829.335     2.376E-19
  54829.405     2.432E-19
  54829.475     2.487E-19
  54829.545     2.529E-19
  54829.615     2.584E-19
  54829.685     2.666E-19
  54829.754     2.711E-19
  54829.824     2.742E-19
  54829.894     2.750E-19
  54829.964     2.733E-19
  54830.034     2.704E-19
  54830.104     2.662E-19
  54830.174     2.607E-19
  54830.244     2.548E-19
  54830.313     2.483E-19
  54830.383     2.398E-19
  54830.453     2.303E-19
  54830.523     2.205E-19
  54830.593     2.108E-19
  54830.663     2.012E-19
  54830.733     1.933E-19
  54830.802     1.845E-19
  54830.872     1.748E-19
  54830.942     1.654E-19
  54831.012     1.574E-19
  54831.082     1.504E-19
  54831.152     1.434E-19
  54831.222     1.362E-19
  54831.292     1.292E-19
  54831.361     1.222E-19
  54831.431     1.160E-19
  54831.501     1.105E-19
  54831.571     1.049E-19
  54831.641     1.014E-19
  54831.711     9.676E-20
  54831.781     9.291E-20
  54831.851     8.969E-20
  54831.920     8.615E-20
  54831.990     8.282E-20
  54832.060     8.078E-20
  54832.130     7.837E-20
  54832.200     7.730E-20
  54832.270     7.484E-20
  54832.340     7.093E-20
  54832.410     6.877E-20
  54832.479     6.694E-20
  54832.549     6.472E-20
  54832.619     6.245E-20
  54832.689     6.093E-20
  54832.759     5.894E-20
  54832.829     5.691E-20
  54832.899     5.513E-20
  54832.969     5.314E-20
  54833.038     5.102E-20
  54833.108     4.922E-20
  54833.178     4.762E-20
  54833.248     4.686E-20
  54833.318     4.654E-20
  54833.388     4.598E-20
  54833.458     4.554E-20
  54833.528     4.472E-20
  54833.597     4.354E-20
  54833.667     4.263E-20
  54833.737     4.184E-20
  54833.807     4.144E-20
  54833.877     4.122E-20
  54833.947     4.069E-20
  54834.017     3.944E-20
  54834.087     3.902E-20
  54834.156     3.920E-20
  54834.226     3.899E-20
  54834.296     3.839E-20
  54834.366     3.909E-20
  54834.436     3.946E-20
  54834.506     3.935E-20
  54834.576     4.039E-20
  54834.646     4.093E-20
  54834.715     4.122E-20
  54834.785     4.116E-20
  54834.855     4.130E-20
  54834.925     4.183E-20
  54834.995     4.313E-20
  54835.065     4.464E-20
  54835.135     4.648E-20
  54835.205     4.861E-20
  54835.275     5.067E-20
  54835.344     5.265E-20
  54835.414     5.465E-20
  54835.484     5.697E-20
  54835.554     5.961E-20
  54835.624     6.112E-20
  54835.694     6.278E-20
  54835.764     6.530E-20
  54835.834     6.798E-20
  54835.903     7.096E-20
  54835.973     7.545E-20
  54836.043     7.924E-20
  54836.113     8.348E-20
  54836.183     8.844E-20
  54836.253     9.555E-20
  54836.323     1.006E-19
  54836.393     1.063E-19
  54836.463     1.116E-19
  54836.532     1.173E-19
  54836.602     1.224E-19
  54836.672     1.288E-19
  54836.742     1.373E-19
  54836.812     1.470E-19
  54836.882     1.574E-19
  54836.952     1.693E-19
  54837.022     1.814E-19
  54837.091     1.937E-19
  54837.161     2.067E-19
  54837.231     2.207E-19
  54837.301     2.344E-19
  54837.371     2.501E-19
  54837.441     2.652E-19
  54837.511     2.849E-19
  54837.581     2.998E-19
  54837.651     3.128E-19
  54837.720     3.237E-19
  54837.790     3.320E-19
  54837.860     3.402E-19
  54837.930     3.487E-19
  54838.000     3.551E-19
  54838.070     3.592E-19
  54838.140     3.614E-19
  54838.210     3.594E-19
  54838.280     3.556E-19
  54838.349     3.514E-19
  54838.419     3.492E-19
  54838.489     3.473E-19
  54838.559     3.416E-19
  54838.629     3.324E-19
  54838.699     3.206E-19
  54838.769     3.073E-19
  54838.839     2.934E-19
  54838.909     2.792E-19
  54838.978     2.648E-19
  54839.048     2.526E-19
  54839.118     2.391E-19
  54839.188     2.260E-19
  54839.258     2.130E-19
  54839.328     2.008E-19
  54839.398     1.894E-19
  54839.468     1.773E-19
  54839.538     1.675E-19
  54839.607     1.606E-19
  54839.677     1.559E-19
  54839.747     1.510E-19
  54839.817     1.471E-19
  54839.887     1.444E-19
  54839.957     1.415E-19
  54840.027     1.387E-19
  54840.097     1.367E-19
  54840.167     1.357E-19
  54840.236     1.352E-19
  54840.306     1.352E-19
  54840.376     1.358E-19
  54840.446     1.366E-19
  54840.516     1.381E-19
  54840.586     1.398E-19
  54840.656     1.410E-19
  54840.726     1.426E-19
  54840.796     1.457E-19
  54840.866     1.493E-19
  54840.935     1.518E-19
  54841.005     1.538E-19
  54841.075     1.553E-19
  54841.145     1.567E-19
  54841.215     1.583E-19
  54841.285     1.596E-19
  54841.355     1.611E-19
  54841.425     1.626E-19
  54841.495     1.638E-19
  54841.564     1.660E-19
  54841.634     1.679E-19
  54841.704     1.707E-19
  54841.774     1.740E-19
  54841.844     1.778E-19
  54841.914     1.816E-19
  54841.984     1.858E-19
  54842.054     1.895E-19
  54842.124     1.930E-19
  54842.194     1.975E-19
  54842.263     2.012E-19
  54842.333     2.036E-19
  54842.403     2.053E-19
  54842.473     2.061E-19
  54842.543     2.055E-19
  54842.613     2.041E-19
  54842.683     2.015E-19
  54842.753     1.968E-19
  54842.823     1.912E-19
  54842.893     1.843E-19
  54842.962     1.750E-19
  54843.032     1.664E-19
  54843.102     1.590E-19
  54843.172     1.525E-19
  54843.242     1.452E-19
  54843.312     1.378E-19
  54843.382     1.310E-19
  54843.452     1.242E-19
  54843.522     1.178E-19
  54843.592     1.115E-19
  54843.661     1.052E-19
  54843.731     1.005E-19
  54843.801     9.456E-20
  54843.871     8.838E-20
  54843.941     8.247E-20
  54844.011     7.837E-20
  54844.081     7.683E-20
  54844.151     7.572E-20
  54844.221     7.252E-20
  54844.291     6.933E-20
  54844.360     6.629E-20
  54844.430     6.394E-20
  54844.500     6.247E-20
  54844.570     6.128E-20
  54844.640     6.023E-20
  54844.710     5.853E-20
  54844.780     5.690E-20
  54844.850     5.485E-20
  54844.920     5.351E-20
  54844.990     5.188E-20
  54845.059     5.025E-20
  54845.129     4.968E-20
  54845.199     4.891E-20
  54845.269     4.734E-20
  54845.339     4.574E-20
  54845.409     4.393E-20
  54845.479     4.225E-20
  54845.549     4.094E-20
  54845.619     3.957E-20
  54845.689     3.782E-20
  54845.758     3.613E-20
  54845.828     3.517E-20
  54845.898     3.461E-20
  54845.968     3.362E-20
  54846.038     3.224E-20
  54846.108     3.081E-20
  54846.178     2.893E-20
  54846.248     2.689E-20
  54846.318     2.548E-20
  54846.388     2.436E-20
  54846.458     2.383E-20
  54846.527     2.281E-20
  54846.597     2.174E-20
  54846.667     2.074E-20
  54846.737     2.019E-20
  54846.807     1.963E-20
  54846.877     1.917E-20
  54846.947     1.882E-20
  54847.017     1.796E-20
  54847.087     1.695E-20
  54847.157     1.645E-20
  54847.227     1.579E-20
  54847.296     1.524E-20
  54847.366     1.482E-20
  54847.436     1.434E-20
  54847.506     1.412E-20
  54847.576     1.392E-20
  54847.646     1.378E-20
  54847.716     1.322E-20
  54847.786     1.301E-20
  54847.856     1.279E-20
  54847.926     1.237E-20
  54847.996     1.204E-20
  54848.065     1.192E-20
  54848.135     1.171E-20
  54848.205     1.118E-20
  54848.275     1.066E-20
  54848.345     1.070E-20
  54848.415     1.064E-20
  54848.485     1.031E-20
  54848.555     1.017E-20
  54848.625     1.027E-20
  54848.695     1.076E-20
  54848.765     1.050E-20
  54848.834     1.019E-20
  54848.904     1.036E-20
  54848.974     1.008E-20
  54849.044     9.445E-21
  54849.114     8.712E-21
  54849.184     8.386E-21
  54849.254     7.911E-21
  54849.324     7.821E-21
  54849.394     8.310E-21
  54849.464     8.748E-21
  54849.534     8.799E-21
  54849.603     8.574E-21
  54849.673     8.603E-21
  54849.743     8.482E-21
  54849.813     7.904E-21
  54849.883     7.700E-21
  54849.953     8.173E-21
  54850.023     8.551E-21
  54850.093     8.684E-21
  54850.163     8.827E-21
  54850.233     9.077E-21
  54850.303     8.679E-21
  54850.373     8.576E-21
  54850.442     8.914E-21
  54850.512     9.443E-21
  54850.582     9.632E-21
  54850.652     9.168E-21
  54850.722     8.519E-21
  54850.792     8.166E-21
  54850.862     7.963E-21
  54850.932     7.772E-21
  54851.002     7.867E-21
  54851.072     8.007E-21
  54851.142     8.444E-21
  54851.212     9.037E-21
  54851.281     9.096E-21
  54851.351     8.627E-21
  54851.421     8.159E-21
  54851.491     7.772E-21
  54851.561     7.384E-21
  54851.631     7.327E-21
  54851.701     7.013E-21
  54851.771     6.896E-21
  54851.841     6.883E-21
  54851.911     6.817E-21
  54851.981     6.760E-21
  54852.051     6.556E-21
  54852.120     6.025E-21
  54852.190     5.723E-21
  54852.260     5.693E-21
  54852.330     5.766E-21
  54852.400     5.799E-21
  54852.470     5.739E-21
  54852.540     5.638E-21
  54852.610     5.464E-21
  54852.680     5.443E-21
  54852.750     4.709E-21
  54852.820     4.240E-21
  54852.890     4.290E-21
  54852.960     4.441E-21
  54853.029     4.612E-21
  54853.099     4.695E-21
  54853.169     4.868E-21
  54853.239     5.330E-21
  54853.309     5.337E-21
  54853.379     4.879E-21
  54853.449     4.421E-21
  54853.519     4.381E-21
  54853.589     4.754E-21
  54853.659     5.207E-21
  54853.729     5.900E-21
  54853.799     5.939E-21
  54853.868     5.331E-21
  54853.938     4.804E-21
  54854.008     4.701E-21
  54854.078     4.481E-21
  54854.148     4.624E-21
  54854.218     4.803E-21
  54854.288     4.751E-21
  54854.358     4.487E-21
  54854.428     4.424E-21
  54854.498     4.610E-21
  54854.568     4.443E-21
  54854.638     4.285E-21
  54854.708     4.461E-21
  54854.778     4.698E-21
  54854.847     4.760E-21
  54854.917     4.633E-21
  54854.987     4.739E-21
  54855.057     4.499E-21
  54855.127     4.338E-21
  54855.197     4.537E-21
  54855.267     4.662E-21
  54855.337     4.538E-21
  54855.407     3.862E-21
  54855.477     3.632E-21
  54855.547     3.608E-21
  54855.617     3.674E-21
  54855.687     4.192E-21
  54855.756     4.369E-21
  54855.826     4.194E-21
  54855.896     3.882E-21
  54855.966     3.755E-21
  54856.036     3.717E-21
  54856.106     3.623E-21
  54856.176     3.637E-21
  54856.246     3.475E-21
  54856.316     3.508E-21
  54856.386     3.444E-21
  54856.456     3.559E-21
  54856.526     4.284E-21
  54856.596     4.324E-21
  54856.666     3.894E-21
  54856.735     3.647E-21
  54856.805     3.534E-21
  54856.875     3.817E-21
  54856.945     4.139E-21
  54857.015     4.034E-21
  54857.085     3.426E-21
  54857.155     3.331E-21
  54857.225     3.563E-21
  54857.295     3.469E-21
  54857.365     3.068E-21
  54857.435     3.225E-21
  54857.505     3.512E-21
  54857.575     3.400E-21
  54857.645     3.405E-21
  54857.715     3.023E-21
  54857.784     2.426E-21
  54857.854     2.326E-21
  54857.924     2.104E-21
  54857.994     2.298E-21
  54858.064     2.849E-21
  54858.134     3.347E-21
  54858.204     3.508E-21
  54858.274     3.357E-21
  54858.344     3.243E-21
  54858.414     3.581E-21
  54858.484     3.259E-21
  54858.554     3.032E-21
  54858.624     3.177E-21
  54858.694     2.932E-21
  54858.763     2.821E-21
  54858.833     3.073E-21
  54858.903     3.424E-21
  54858.973     3.062E-21
  54859.043     2.658E-21
  54859.113     2.661E-21
  54859.183     2.587E-21
  54859.253     2.339E-21
  54859.323     2.168E-21
  54859.393     2.024E-21
  54859.463     2.317E-21
  54859.533     2.756E-21
  54859.603     2.521E-21
  54859.673     2.557E-21
  54859.743     2.512E-21
  54859.813     2.128E-21
  54859.882     2.227E-21
  54859.952     2.316E-21
  54860.022     2.807E-21
  54860.092     3.213E-21
  54860.162     3.554E-21
  54860.232     3.143E-21
  54860.302     2.872E-21
  54860.372     3.108E-21
  54860.442     3.042E-21
  54860.512     2.671E-21
  54860.582     2.060E-21
  54860.652     1.106E-21
  54860.722     8.025E-22
  54860.792     1.303E-21
  54860.862     1.452E-21
  54860.932     1.443E-21
  54861.001     1.357E-21
  54861.071     9.093E-22
  54861.141     6.691E-22
  54861.211     9.502E-22
  54861.281     2.035E-21
  54861.351     2.610E-21
  54861.421     2.474E-21
  54861.491     2.258E-21
  54861.561     2.173E-21
  54861.631     2.620E-21
  54861.701     3.266E-21
  54861.771     3.508E-21
  54861.841     3.961E-21
  54861.911     3.987E-21
  54861.981     3.892E-21
  54862.051     4.216E-21
  54862.121     4.038E-21
  54862.190     3.444E-21
  54862.260     2.994E-21
  54862.330     2.517E-21
  54862.400     1.958E-21
  54862.470     1.906E-21
  54862.540     2.349E-21
  54862.610     2.569E-21
  54862.680     2.877E-21
  54862.750     2.943E-21
  54862.820     2.677E-21
  54862.890     2.218E-21
  54862.960     1.642E-21
  54863.030     1.252E-21
  54863.100     7.629E-22
  54863.170     5.412E-22
  54863.240     5.625E-22
  54863.310     6.890E-22
  54863.379     6.690E-22
  54863.449     1.063E-21
  54863.519     1.289E-21
  54863.589     1.534E-21
  54863.659     1.989E-21
  54863.729     2.457E-21
  54863.799     2.441E-21
  54863.869     2.121E-21
  54863.939     2.092E-21
  54864.009     2.198E-21
  54864.079     1.944E-21
  54864.149     1.698E-21
  54864.219     1.604E-21
  54864.289     1.456E-21
  54864.359     1.794E-21
  54864.429     2.137E-21
  54864.499     2.340E-21
  54864.569     2.534E-21
  54864.639     2.442E-21
  54864.708     2.048E-21
  54864.778     2.205E-21
  54864.848     2.224E-21
  54864.918     1.791E-21
  54864.988     1.647E-21
  54865.058     1.716E-21
  54865.128     1.734E-21
  54865.198     2.091E-21
  54865.268     2.716E-21
  54865.338     3.190E-21
  54865.408     3.241E-21
  54865.478     3.429E-21
  54865.548     3.428E-21
  54865.618     2.994E-21
  54865.688     2.498E-21
  54865.758     2.540E-21
  54865.828     2.911E-21
  54865.898     3.489E-21
  54865.968     3.340E-21
  54866.038     3.170E-21
  54866.107     2.797E-21
  54866.177     2.553E-21
  54866.247     1.983E-21
  54866.317     1.207E-21
  54866.387     1.136E-21
  54866.457     9.741E-22
  54866.527     8.866E-22
  54866.597     1.019E-21
  54866.667     1.156E-21
  54866.737     1.456E-21
  54866.807     1.623E-21
  54866.877     2.023E-21
  54866.947     2.416E-21
  54867.017     2.165E-21
  54867.087     1.996E-21
  54867.157     2.091E-21
  54867.227     2.187E-21
  54867.297     2.137E-21
  54867.367     1.886E-21
  54867.437     1.913E-21
  54867.507     1.993E-21
  54867.576     1.856E-21
  54867.646     1.322E-21
  54867.716     1.203E-21
  54867.786     1.058E-21
  54867.856     3.770E-22
  54867.926    -5.774E-23
  54867.996    -1.089E-22
  54868.066    -3.668E-22
  54868.136    -6.110E-23
  54868.206     4.945E-22
  54868.276     7.921E-22
  54868.346     9.475E-22
  54868.416     1.021E-21
  54868.486     9.496E-22
  54868.556     8.671E-22
  54868.626     1.072E-21
  54868.696     1.142E-21
  54868.766     1.170E-21
  54868.836     1.292E-21
  54868.906     1.232E-21
  54868.976     1.432E-21
  54869.046     1.669E-21
  54869.115     1.532E-21
  54869.185     1.395E-21
  54869.255     1.779E-21
  54869.325     1.919E-21
  54869.395     1.295E-21
  54869.465     8.503E-22
  54869.535     9.214E-22
  54869.605     9.674E-22
  54869.675     1.428E-21
  54869.745     1.858E-21
  54869.815     2.417E-21
  54869.885     3.163E-21
  54869.955     3.358E-21
  54870.025     3.150E-21
  54870.095     2.906E-21
  54870.165     2.795E-21
  54870.235     3.023E-21
  54870.305     2.858E-21
  54870.375     2.571E-21
  54870.445     2.743E-21
  54870.515     3.152E-21
  54870.585     3.757E-21
  54870.655     3.960E-21
  54870.725     3.611E-21
  54870.795     3.550E-21
  54870.864     3.562E-21
  54870.934     3.538E-21
  54871.004     3.435E-21
  54871.074     2.934E-21
  54871.144     2.412E-21
  54871.214     1.948E-21
  54871.284     1.150E-21
  54871.354     6.067E-22
  54871.424     4.376E-22
  54871.494     2.564E-22
  54871.564     1.807E-22
  54871.634     5.963E-22
  54871.704     9.623E-22
  54871.774     1.250E-21
  54871.844     1.267E-21
  54871.914     1.102E-21
  54871.984     9.379E-22
  54872.054     7.189E-22
  54872.124     3.711E-22
  54872.194     3.371E-22
  54872.264     6.548E-22
  54872.334     9.422E-22
  54872.404     1.118E-21
  54872.474     1.389E-21
  54872.544     1.831E-21
  54872.614     2.214E-21
  54872.684     2.457E-21
  54872.753     2.420E-21
  54872.823     2.651E-21
  54872.893     3.160E-21
  54872.963     3.676E-21
  54873.033     3.879E-21
  54873.103     3.527E-21
  54873.173     3.250E-21
  54873.243     3.161E-21
  54873.313     2.774E-21
  54873.383     2.387E-21
  54873.453     1.832E-21
  54873.523     1.433E-21
  54873.593     1.019E-21
  54873.663     6.052E-22
  54873.733     3.783E-22
  54873.803     2.868E-22
  54873.873     7.569E-22
  54873.943     1.321E-21
  54874.013     1.935E-21
  54874.083     2.471E-21
  54874.153     2.646E-21
  54874.223     2.841E-21
  54874.293     2.954E-21
  54874.363     2.472E-21
  54874.433     2.054E-21
  54874.503     1.489E-21
  54874.573     1.197E-21
  54874.643     1.067E-21
  54874.713     9.056E-22
  54874.783     1.146E-21
  54874.853     1.340E-21
  54874.923     1.569E-21
  54874.992     1.973E-21
  54875.062     2.333E-21
  54875.132     2.021E-21
  54875.202     1.784E-21
  54875.272     1.776E-21
  54875.342     1.331E-21
  54875.412     1.026E-21
  54875.482     6.741E-22
  54875.552     5.849E-22
  54875.622     1.026E-21
  54875.692     1.291E-21
  54875.762     1.478E-21
  54875.832     1.410E-21
  54875.902     8.802E-22
  54875.972     8.688E-22
  54876.042     1.090E-21
  54876.112     1.150E-21
  54876.182     1.382E-21
  54876.252     1.966E-21
  54876.322     2.223E-21
  54876.392     2.209E-21
  54876.462     1.973E-21
  54876.532     1.246E-21
  54876.602     7.590E-22
  54876.672     8.834E-22
  54876.742     1.141E-21
  54876.812     1.325E-21
  54876.882     1.602E-21
  54876.952     2.102E-21
  54877.022     2.451E-21
  54877.092     2.066E-21
  54877.162     1.598E-21
  54877.232     1.217E-21
  54877.302     1.005E-21
  54877.372     1.196E-21
  54877.442     1.259E-21
  54877.512     1.616E-21
  54877.582     2.117E-21
  54877.651     2.161E-21
  54877.721     2.114E-21
  54877.791     2.013E-21
  54877.861     1.920E-21
  54877.931     1.632E-21
  54878.001     1.632E-21
  54878.071     1.929E-21
  54878.141     1.686E-21
  54878.211     1.410E-21
  54878.281     1.909E-21
  54878.351     2.320E-21
  54878.421     2.016E-21
  54878.491     1.900E-21
  54878.561     2.034E-21
  54878.631     2.251E-21
  54878.701     2.632E-21
  54878.771     2.969E-21
  54878.841     3.393E-21
  54878.911     3.257E-21
  54878.981     3.262E-21
  54879.051     3.140E-21
  54879.121     2.840E-21
  54879.191     2.372E-21
  54879.261     2.229E-21
  54879.331     1.766E-21
  54879.401     1.599E-21
  54879.471     1.067E-21
  54879.541     7.953E-22
  54879.611     1.179E-21
  54879.681     1.418E-21
  54879.751     1.449E-21
  54879.821     1.205E-21
  54879.891     7.423E-22
  54879.961     7.222E-22
  54880.031     8.884E-22
  54880.101     1.110E-21
  54880.171     9.935E-22
  54880.241     9.845E-22
  54880.311     1.024E-21
  54880.381     6.609E-22
  54880.451     7.115E-22
  54880.521     8.715E-22
  54880.591     7.843E-22
  54880.661     9.014E-22
  54880.731     1.246E-21
  54880.801     1.330E-21
  54880.871     1.685E-21
  54880.941     1.781E-21
  54881.011     1.792E-21
  54881.081     1.929E-21
  54881.151     1.895E-21
  54881.221     1.490E-21
  54881.290     1.306E-21
  54881.360     1.345E-21
  54881.430     1.435E-21
  54881.500     1.670E-21
  54881.570     1.755E-21
  54881.640     1.800E-21
  54881.710     2.004E-21
  54881.780     2.383E-21
  54881.850     2.167E-21
  54881.920     2.150E-21
  54881.990     2.107E-21
  54882.060     2.029E-21
  54882.130     1.804E-21
  54882.200     1.259E-21
  54882.270     1.248E-21
  54882.340     1.622E-21
  54882.410     1.609E-21
  54882.480     1.566E-21
  54882.550     1.660E-21
  54882.620     1.675E-21
  54882.690     1.949E-21
  54882.760     2.388E-21
  54882.830     3.012E-21
  54882.900     2.947E-21
  54882.970     2.559E-21
  54883.040     2.484E-21
  54883.110     2.095E-21
  54883.180     1.536E-21
  54883.250     1.086E-21
  54883.320     6.476E-22
  54883.390     6.422E-22
  54883.460     7.087E-22
  54883.530     6.842E-22
  54883.600     7.349E-22
  54883.670     1.107E-21
  54883.740     1.904E-21
  54883.810     2.440E-21
  54883.880     2.778E-21
  54883.950     3.190E-21
  54884.020     3.328E-21
  54884.090     3.475E-21
  54884.160     3.488E-21
  54884.230     3.312E-21
  54884.300     2.792E-21
  54884.370     2.113E-21
  54884.440     1.745E-21
  54884.510     1.735E-21
  54884.580     2.001E-21
  54884.650     2.150E-21
  54884.720     2.188E-21
  54884.790     2.142E-21
  54884.860     2.270E-21
  54884.930     2.461E-21
  54885.000     2.948E-21
  54885.070     3.103E-21
  54885.140     3.183E-21
  54885.210     3.022E-21
  54885.280     2.726E-21
  54885.350     2.551E-21
  54885.420     2.558E-21
  54885.490     2.472E-21
  54885.560     2.554E-21
  54885.630     2.402E-21
  54885.700     2.227E-21
  54885.770     1.786E-21
  54885.840     1.132E-21
  54885.910     8.679E-22
  54885.980     8.853E-22
  54886.050     1.049E-21
  54886.120     1.384E-21
  54886.190     2.048E-21
  54886.260     2.287E-21
  54886.330     1.701E-21
  54886.400     9.942E-22
  54886.470     4.698E-22
  54886.540     1.884E-22
  54886.610     3.077E-22
  54886.680     9.051E-23
  54886.750     1.838E-22
  54886.820     6.683E-22
  54886.890     7.683E-22
  54886.960     7.850E-22
  54887.030     5.648E-22
  54887.100     2.081E-22
  54887.170     3.878E-22
  54887.240     3.769E-22
  54887.310     4.679E-22
  54887.380     5.266E-22
  54887.450     5.256E-22
  54887.520     7.819E-22
  54887.590     1.091E-21
  54887.660     1.098E-21
  54887.730     1.280E-21
  54887.800     1.440E-21
  54887.870     1.406E-21
  54887.940     1.413E-21
  54888.010     1.130E-21
  54888.080     1.462E-21
  54888.150     2.043E-21
  54888.220     2.448E-21
  54888.290     3.092E-21
  54888.360     3.425E-21
  54888.430     3.537E-21
  54888.500     2.988E-21
  54888.570     1.942E-21
  54888.640     1.502E-21
  54888.710     1.251E-21
  54888.780     1.223E-21
  54888.850     1.096E-21
  54888.920     1.188E-21
  54888.990     1.814E-21
  54889.060     2.081E-21
  54889.130     2.071E-21
  54889.200     2.150E-21
  54889.270     2.332E-21
  54889.340     2.380E-21
  54889.410     2.380E-21
  54889.480     2.188E-21
  54889.550     2.318E-21
  54889.620     2.277E-21
  54889.690     2.527E-21
  54889.760     3.064E-21
  54889.830     3.323E-21
  54889.900     3.249E-21
  54889.970     2.976E-21
  54890.040     3.114E-21
  54890.110     2.752E-21
  54890.180     2.429E-21
  54890.250     1.926E-21
  54890.320     1.650E-21
  54890.390     1.734E-21
  54890.460     1.908E-21
  54890.530     1.812E-21
  54890.600     1.630E-21
  54890.670     1.675E-21
  54890.740     2.033E-21
  54890.810     2.297E-21
  54890.880     2.228E-21
  54890.950     1.929E-21
  54891.020     1.740E-21
  54891.090     1.424E-21
  54891.160     1.331E-21
  54891.230     1.586E-21
  54891.300     1.666E-21
  54891.370     1.628E-21
  54891.440     1.596E-21
  54891.510     1.614E-21
  54891.580     2.020E-21
  54891.650     2.658E-21
  54891.720     2.737E-21
  54891.790     2.823E-21
  54891.860     2.966E-21
  54891.930     2.934E-21
  54892.000     3.041E-21
  54892.070     3.180E-21
  54892.140     3.256E-21
  54892.210     3.235E-21
  54892.280     3.048E-21
  54892.350     2.727E-21
  54892.420     3.019E-21
  54892.490     3.552E-21
  54892.560     3.657E-21
  54892.630     4.046E-21
  54892.700     3.964E-21
  54892.770     3.455E-21
  54892.840     3.335E-21
  54892.910     3.165E-21
  54892.980     3.085E-21
  54893.050     2.774E-21
  54893.120     2.463E-21
  54893.190     2.255E-21
  54893.260     2.439E-21
  54893.330     2.387E-21
  54893.400     2.738E-21
  54893.470     2.499E-21
  54893.540     2.240E-21
  54893.610     2.096E-21
  54893.680     1.980E-21
  54893.750     1.943E-21
  54893.820     1.784E-21
  54893.890     1.222E-21
  54893.960     3.541E-22
  54894.030     3.867E-23
  54894.100    -5.453E-23
  54894.170    -9.083E-23
  54894.240     2.510E-22
  54894.310     8.453E-22
  54894.380     1.145E-21
  54894.450     1.257E-21
  54894.520     1.325E-21
  54894.591     1.420E-21
  54894.661     1.236E-21
  54894.731     1.030E-21
  54894.801     1.224E-21
  54894.871     1.034E-21
  54894.941     8.789E-22
  54895.011     7.686E-22
  54895.081     7.018E-22
  54895.151     8.857E-22
  54895.221     1.071E-21
  54895.291     8.986E-22
  54895.361     7.602E-22
  54895.431     5.162E-22
  54895.501    -2.284E-22
  54895.571    -7.982E-22
  54895.641    -5.087E-22
  54895.711    -3.714E-23
  54895.781     3.694E-22
  54895.851     8.029E-22
  54895.921     9.414E-22
  54895.991     8.886E-22
  54896.061     4.968E-22
  54896.131    -5.559E-24
  54896.201    -2.565E-22
  54896.271    -1.985E-22
  54896.341    -1.730E-22
  54896.411    -1.250E-22
  54896.481     3.002E-22
  54896.551     3.145E-22
  54896.621     2.193E-22
  54896.691     6.503E-22
  54896.761     1.108E-21
  54896.831     1.155E-21
  54896.901     9.788E-22
  54896.971     6.747E-22
  54897.041     1.047E-21
  54897.111     1.287E-21
  54897.181     1.434E-21
  54897.251     1.214E-21
  54897.321     6.749E-22
  54897.391     4.365E-22
  54897.461     5.540E-22
  54897.531     7.250E-22
  54897.601     9.931E-22
  54897.671     1.341E-21
  54897.741     1.395E-21
  54897.811     1.341E-21
  54897.881     1.058E-21
  54897.951     9.048E-22
  54898.021     7.783E-22
  54898.091     1.138E-21
  54898.161     1.836E-21
  54898.232     2.181E-21
  54898.302     2.081E-21
  54898.372     1.841E-21
  54898.442     1.466E-21
  54898.512     1.395E-21
  54898.582     1.083E-21
  54898.652     1.166E-21
  54898.722     1.562E-21
  54898.792     1.439E-21
  54898.862     1.442E-21
  54898.932     1.291E-21
  54899.002     3.268E-22
  54899.072    -5.200E-22
  54899.142    -1.166E-21
  54899.212    -1.378E-21
  54899.282    -1.142E-21
  54899.352    -7.712E-22
  54899.422    -1.086E-21
  54899.492    -1.243E-21
  54899.562    -8.401E-22
  54899.632     3.207E-22
  54899.702     1.173E-21
  54899.772     1.355E-21
  54899.842     9.552E-22
  54899.912     2.391E-22
  54899.982    -5.215E-22
  54900.052    -7.823E-22
  54900.122    -7.615E-22
  54900.192    -4.425E-22
  54900.262    -2.626E-22
  54900.332    -3.509E-23
  54900.402    -2.115E-22
  54900.472    -3.215E-22
  54900.542     1.817E-23
  54900.612     2.569E-22
  54900.682     3.322E-22
  54900.752     9.181E-22
  54900.822     9.516E-22
  54900.893     7.495E-22
  54900.963     3.089E-22
  54901.033    -1.101E-22
  54901.103    -2.243E-22
  54901.173     4.259E-23
  54901.243    -6.717E-24
  54901.313    -2.317E-22
  54901.383    -2.439E-22
  54901.453    -2.311E-22
  54901.523     1.759E-22
  54901.593     4.618E-22
  54901.663     3.437E-22
  54901.733    -1.445E-22
  54901.803    -3.565E-22
  54901.873    -2.071E-22
  54901.943    -9.313E-23
  54902.013     4.284E-22
  54902.083     8.229E-22
  54902.153     5.331E-22
  54902.223     1.457E-22
  54902.293    -7.705E-23
  54902.363    -3.050E-22
  54902.433    -7.115E-22
  54902.503    -7.257E-22
  54902.573    -4.688E-22
  54902.643     5.134E-23
  54902.713     5.194E-22
  54902.783     2.341E-22
  54902.853     1.293E-22
  54902.923     3.363E-22
  54902.993     4.708E-22
  54903.064     7.456E-22
  54903.134     7.430E-22
  54903.204     2.489E-22
  54903.274    -2.176E-23
  54903.344    -1.274E-22
  54903.414    -1.572E-23
  54903.484    -3.815E-23
  54903.554    -4.216E-22
  54903.624    -2.356E-22
  54903.694     2.359E-22
  54903.764     3.615E-22
  54903.834    -5.428E-23
  54903.904    -6.381E-22
  54903.974    -1.219E-21
  54904.044    -1.494E-21
  54904.114    -1.308E-21
  54904.184    -6.648E-22
  54904.254     2.487E-22
  54904.324     8.075E-22
  54904.394     8.630E-22
  54904.464     1.104E-21
  54904.534     1.375E-21
  54904.604     1.466E-21
  54904.674     1.375E-21
  54904.744     1.563E-21
  54904.814     1.589E-21
  54904.884     1.656E-21
  54904.954     1.832E-21
  54905.025     2.035E-21
  54905.095     1.775E-21
  54905.165     1.371E-21
  54905.235     1.070E-21
  54905.305     7.109E-22
  54905.375     1.896E-22
  54905.445     8.705E-23
  54905.514     5.171E-24
