 18O2;(9,0);79K;54160-486 cm-1;4760 pts
      WNO        SIGMA
  54160.089     5.023E-22
  54160.157     2.769E-22
  54160.225     2.560E-22
  54160.293     3.167E-22
  54160.361     4.798E-22
  54160.429     7.055E-22
  54160.497     7.670E-22
  54160.565     6.221E-22
  54160.633     4.777E-22
  54160.701     3.545E-22
  54160.770     2.113E-22
  54160.838     1.905E-22
  54160.906     2.510E-22
  54160.974     3.933E-22
  54161.042     3.519E-22
  54161.110     3.106E-22
  54161.178     3.509E-22
  54161.246     1.468E-22
  54161.314     1.260E-22
  54161.382     8.498E-23
  54161.450     4.398E-23
  54161.519     2.668E-22
  54161.587     3.888E-22
  54161.655     5.112E-22
  54161.723     5.723E-22
  54161.791     6.336E-22
  54161.859     5.713E-22
  54161.927     3.863E-22
  54161.995     1.007E-22
  54162.063    -4.140E-23
  54162.132    -1.512E-24
  54162.200     2.007E-22
  54162.268     5.272E-22
  54162.336     7.121E-22
  54162.404     8.357E-22
  54162.472     8.560E-22
  54162.540     7.933E-22
  54162.608     5.452E-22
  54162.676     3.194E-22
  54162.744     1.416E-23
  54162.813    -2.482E-22
  54162.881    -2.487E-22
  54162.949    -1.286E-22
  54163.017    -6.865E-23
  54163.085     2.145E-22
  54163.153     4.386E-22
  54163.221     3.971E-22
  54163.289     1.926E-22
  54163.357     9.609E-24
  54163.425    -2.126E-22
  54163.494    -3.934E-22
  54163.562    -3.339E-22
  54163.630    -3.144E-22
  54163.698    -2.146E-22
  54163.766     1.688E-22
  54163.834     3.926E-22
  54163.902     3.512E-22
  54163.970     4.940E-22
  54164.038     6.169E-22
  54164.107     3.905E-22
  54164.175    -1.667E-23
  54164.243    -7.775E-23
  54164.311     6.326E-23
  54164.379     1.642E-22
  54164.447     3.880E-22
  54164.515     3.875E-22
  54164.583     1.018E-22
  54164.651    -1.009E-22
  54164.720    -1.417E-22
  54164.788    -2.026E-22
  54164.856    -2.834E-22
  54164.924    -2.237E-22
  54164.992    -1.438E-22
  54165.060     3.744E-23
  54165.128     2.400E-22
  54165.196     3.416E-22
  54165.264     3.002E-22
  54165.333     3.814E-22
  54165.401     4.834E-22
  54165.469     5.034E-22
  54165.537     4.004E-22
  54165.605     2.365E-22
  54165.673     1.953E-22
  54165.741     7.291E-23
  54165.809    -8.586E-24
  54165.877    -1.100E-22
  54165.946    -7.021E-23
  54166.014    -5.052E-23
  54166.082    -1.921E-22
  54166.150    -3.531E-22
  54166.218    -5.133E-22
  54166.286    -5.138E-22
  54166.354    -2.745E-22
  54166.422    -2.348E-22
  54166.490    -2.755E-22
  54166.559    -1.353E-22
  54166.627     2.085E-22
  54166.695     4.943E-22
  54166.763     4.528E-22
  54166.831     3.090E-22
  54166.899     1.049E-22
  54166.967    -7.779E-23
  54167.035    -9.848E-23
  54167.104    -1.191E-22
  54167.172    -1.870E-23
  54167.240     1.633E-22
  54167.308     2.442E-22
  54167.376     1.826E-22
  54167.444     6.027E-23
  54167.512    -1.000E-24
  54167.580     3.899E-23
  54167.648     3.848E-23
  54167.717     5.824E-23
  54167.785    -6.367E-23
  54167.853    -3.257E-22
  54167.921    -3.462E-22
  54167.989    -2.465E-22
  54168.057     1.519E-23
  54168.125     3.607E-22
  54168.193     4.627E-22
  54168.262     4.006E-22
  54168.330     2.366E-22
  54168.398     7.346E-23
  54168.466    -6.873E-23
  54168.534    -1.298E-22
  54168.602    -2.932E-23
  54168.670     2.341E-22
  54168.738     2.744E-22
  54168.807     1.924E-22
  54168.875     1.919E-22
  54168.943     3.137E-22
  54169.011     3.337E-22
  54169.079     2.311E-22
  54169.147     7.100E-24
  54169.215    -5.409E-23
  54169.283    -2.561E-22
  54169.352    -4.368E-22
  54169.420    -3.974E-22
  54169.488    -3.779E-22
  54169.556    -3.383E-22
  54169.624    -4.389E-22
  54169.692    -4.793E-22
  54169.760    -4.399E-22
  54169.828    -3.003E-22
  54169.897    -1.600E-22
  54169.965     2.128E-23
  54170.033     2.648E-22
  54170.101     2.643E-22
  54170.169     2.638E-22
  54170.237     1.817E-22
  54170.305    -2.174E-23
  54170.373    -1.233E-22
  54170.442    -1.036E-22
  54170.510    -1.243E-22
  54170.578    -2.377E-23
  54170.646     7.705E-23
  54170.714     5.626E-23
  54170.782     1.167E-22
  54170.850     1.568E-22
  54170.919     7.503E-23
  54170.987     1.369E-23
  54171.055     1.553E-22
  54171.123     2.975E-22
  54171.191     2.766E-22
  54171.259     2.557E-22
  54171.327     1.940E-22
  54171.395    -9.601E-24
  54171.464    -2.321E-22
  54171.532    -4.530E-22
  54171.600    -5.533E-22
  54171.668    -4.541E-22
  54171.736    -2.542E-22
  54171.804    -1.944E-22
  54171.872    -3.339E-23
  54171.940    -3.389E-23
  54172.009    -2.160E-22
  54172.077    -2.165E-22
  54172.145    -7.585E-23
  54172.213     1.671E-22
  54172.281     2.889E-22
  54172.349     1.660E-22
  54172.417    -1.720E-23
  54172.486    -2.397E-22
  54172.554    -4.007E-22
  54172.622    -5.409E-22
  54172.690    -5.215E-22
  54172.758    -2.819E-22
  54172.826    -1.415E-22
  54172.894    -8.142E-23
  54172.963    -1.021E-22
  54173.031    -1.228E-22
  54173.099    -2.006E-24
  54173.167     5.832E-23
  54173.235     2.614E-22
  54173.303     3.632E-22
  54173.371     1.178E-22
  54173.439    -4.538E-24
  54173.508     9.641E-23
  54173.576     2.181E-22
  54173.644     2.993E-22
  54173.712     2.783E-22
  54173.780     1.147E-22
  54173.848    -2.498E-22
  54173.916    -3.908E-22
  54173.985    -4.113E-22
  54174.053    -1.506E-22
  54174.121     1.325E-22
  54174.189     2.339E-22
  54174.257     1.315E-22
  54174.325    -1.123E-22
  54174.393    -3.743E-22
  54174.462    -2.945E-22
  54174.530    -3.290E-23
  54174.598     8.831E-23
  54174.666     6.748E-23
  54174.734     6.104E-24
  54174.802     1.071E-22
  54174.870     3.720E-22
  54174.939     4.742E-22
  54175.007     4.737E-22
  54175.075     3.091E-22
  54175.143     3.086E-22
  54175.211     2.672E-22
  54175.279     2.258E-22
  54175.347     3.890E-22
  54175.416     4.090E-22
  54175.484     1.631E-22
  54175.552    -2.024E-23
  54175.620    -1.824E-22
  54175.688    -2.232E-22
  54175.756    -8.248E-23
  54175.824    -8.299E-23
  54175.893     7.868E-23
  54175.961     1.188E-22
  54176.029     1.183E-22
  54176.097     3.834E-22
  54176.165     3.829E-22
  54176.233     3.209E-22
  54176.301     2.795E-22
  54176.370     2.381E-22
  54176.438     2.580E-22
  54176.506     7.412E-23
  54176.574    -2.784E-23
  54176.642     1.341E-22
  54176.710     3.584E-22
  54176.779     4.605E-22
  54176.847     3.984E-22
  54176.915     1.728E-22
  54176.983     7.057E-23
  54177.051     4.975E-23
  54177.119    -7.239E-23
  54177.187     8.140E-24
  54177.256     8.887E-23
  54177.324     2.923E-22
  54177.392     4.971E-22
  54177.460     5.378E-22
  54177.528     4.755E-22
  54177.596     5.368E-22
  54177.664     4.128E-22
  54177.733     1.668E-22
  54177.801     6.449E-23
  54177.869     8.431E-23
  54177.937     1.041E-22
  54178.005    -9.921E-23
  54178.073    -1.805E-22
  54178.142    -1.002E-22
  54178.210     1.836E-22
  54178.278     1.423E-22
  54178.346    -4.102E-23
  54178.414    -1.225E-22
  54178.482    -4.047E-22
  54178.550    -7.441E-22
  54178.619    -9.817E-22
  54178.687    -1.061E-21
  54178.755    -1.002E-21
  54178.823    -7.461E-22
  54178.891    -3.676E-22
  54178.959    -2.274E-22
  54179.028    -2.078E-22
  54179.096    -2.083E-22
  54179.164    -8.760E-23
  54179.232     7.417E-23
  54179.300     3.596E-22
  54179.368     6.890E-22
  54179.436     6.677E-22
  54179.505     4.608E-22
  54179.573     3.371E-22
  54179.641     2.342E-22
  54179.709     9.096E-23
  54179.777    -1.528E-22
  54179.845    -3.145E-22
  54179.914    -2.547E-22
  54179.982    -1.139E-22
  54180.050     1.291E-22
  54180.118     2.511E-22
  54180.186     1.078E-22
  54180.254     6.656E-23
  54180.323     2.541E-23
  54180.391    -1.569E-23
  54180.459    -1.620E-23
  54180.527    -1.671E-23
  54180.595    -1.721E-23
  54180.663     4.319E-23
  54180.732     6.301E-23
  54180.800    -5.928E-23
  54180.868    -1.811E-22
  54180.936    -1.816E-22
  54181.004    -1.619E-22
  54181.072    -8.156E-23
  54181.140    -1.831E-22
  54181.209    -2.844E-22
  54181.277    -1.236E-22
  54181.345    -1.241E-22
  54181.413    -1.852E-22
  54181.481    -2.381E-23
  54181.549    -2.432E-23
  54181.618    -4.510E-23
  54181.686     7.625E-23
  54181.754     1.368E-22
  54181.822     5.489E-23
  54181.890     5.438E-23
  54181.958     2.170E-22
  54182.027     4.626E-22
  54182.095     5.446E-22
  54182.163     4.822E-22
  54182.231     5.229E-22
  54182.299     6.257E-22
  54182.367     7.496E-22
  54182.436     8.740E-22
  54182.504     6.656E-22
  54182.572     2.942E-22
  54182.640     1.506E-22
  54182.708     7.651E-24
  54182.776     8.848E-23
  54182.845     1.899E-22
  54182.913     2.303E-22
  54182.981     2.502E-22
  54183.049     2.293E-22
  54183.117     1.675E-22
  54183.185     1.058E-22
  54183.254     1.461E-22
  54183.322     8.442E-23
  54183.390    -1.999E-22
  54183.458    -3.012E-22
  54183.526    -1.807E-22
  54183.594    -3.954E-23
  54183.663     2.043E-22
  54183.731     4.499E-22
  54183.799     6.767E-22
  54183.867     5.934E-22
  54183.935     3.867E-22
  54184.004     1.813E-22
  54184.072     5.848E-23
  54184.140    -1.449E-22
  54184.208    -2.262E-22
  54184.276    -8.516E-23
  54184.344    -2.484E-23
  54184.413     5.595E-23
  54184.481     1.369E-22
  54184.549     7.528E-23
  54184.617     1.155E-22
  54184.685     2.785E-22
  54184.753     2.370E-22
  54184.822     1.140E-22
  54184.890     7.275E-23
  54184.958    -2.940E-23
  54185.026    -1.919E-22
  54185.094    -1.722E-22
  54185.162     3.002E-23
  54185.231     1.926E-22
  54185.299     3.560E-22
  54185.367     4.377E-22
  54185.435     4.578E-22
  54185.503     3.339E-22
  54185.572     3.745E-22
  54185.640     4.151E-22
  54185.708     4.970E-22
  54185.776     4.141E-22
  54185.844     2.289E-22
  54185.912    -1.621E-23
  54185.981    -1.181E-22
  54186.049    -7.810E-23
  54186.117     2.291E-23
  54186.185     1.242E-22
  54186.253     1.441E-22
  54186.321     2.049E-22
  54186.390     2.249E-22
  54186.458     2.653E-22
  54186.526     2.648E-22
  54186.594     2.233E-22
  54186.662     2.433E-22
  54186.731     3.043E-22
  54186.799     2.423E-22
  54186.867     2.827E-22
  54186.935     3.233E-22
  54187.003     3.433E-22
  54187.071     3.839E-22
  54187.140     5.897E-22
  54187.208     7.136E-22
  54187.276     9.424E-22
  54187.344     1.278E-21
  54187.412     1.341E-21
  54187.481     1.277E-21
  54187.549     1.066E-21
  54187.617     1.045E-21
  54187.685     1.086E-21
  54187.753     9.807E-22
  54187.821     9.174E-22
  54187.890     8.334E-22
  54187.958     7.912E-22
  54188.026     8.532E-22
  54188.094     8.736E-22
  54188.162     7.272E-22
  54188.231     5.402E-22
  54188.299     3.131E-22
  54188.367     2.101E-22
  54188.435     3.326E-22
  54188.503     3.938E-22
  54188.572     4.963E-22
  54188.640     5.165E-22
  54188.708     5.160E-22
  54188.776     3.918E-22
  54188.844     1.044E-22
  54188.912    -7.916E-23
  54188.981    -1.405E-22
  54189.049    -2.622E-22
  54189.117    -3.031E-22
  54189.185    -1.622E-22
  54189.253    -4.626E-25
  54189.322     8.047E-23
  54189.390     2.025E-22
  54189.458     4.485E-22
  54189.526     6.133E-22
  54189.594     6.335E-22
  54189.663     6.123E-22
  54189.731     5.704E-22
  54189.799     6.320E-22
  54189.867     5.280E-22
  54189.935     3.009E-22
  54190.003     7.539E-23
  54190.072    -2.689E-23
  54190.140     3.362E-23
  54190.208    -2.791E-23
  54190.276     5.297E-23
  54190.344     1.136E-22
  54190.413    -2.943E-23
  54190.481    -5.026E-23
  54190.549    -9.136E-23
  54190.617    -2.941E-22
  54190.685    -1.329E-22
  54190.754     1.923E-22
  54190.822     3.765E-22
  54190.890     4.378E-22
  54190.958     5.405E-22
  54191.026     6.643E-22
  54191.095     7.262E-22
  54191.163     5.597E-22
  54191.231     2.092E-22
  54191.299    -2.184E-22
  54191.367    -4.606E-22
  54191.436    -5.612E-22
  54191.504    -4.616E-22
  54191.572    -4.621E-22
  54191.640    -4.425E-22
  54191.708    -4.832E-22
  54191.777    -5.237E-22
  54191.845    -5.242E-22
  54191.913    -4.044E-22
  54191.981    -4.451E-22
  54192.049    -2.442E-22
  54192.118    -1.476E-24
  54192.186     2.021E-22
  54192.254     1.403E-22
  54192.322    -1.249E-22
  54192.390    -3.677E-22
  54192.459    -4.085E-22
  54192.527    -2.680E-22
  54192.595    -4.571E-23
  54192.663     9.635E-23
  54192.731     1.776E-22
  54192.800     1.771E-22
  54192.868     3.365E-23
  54192.936    -1.294E-22
  54193.004     9.381E-23
  54193.072     1.546E-22
  54193.141     1.132E-22
  54193.209     9.228E-23
  54193.277    -1.012E-23
  54193.345    -1.122E-22
  54193.413    -1.533E-22
  54193.482    -1.943E-22
  54193.550    -1.137E-22
  54193.618    -3.301E-23
  54193.686    -5.385E-23
  54193.754     4.742E-23
  54193.823     8.770E-23
  54193.891     8.719E-23
  54193.959     4.589E-23
  54194.027     2.500E-23
  54194.095    -1.623E-23
  54194.164    -3.608E-22
  54194.232    -6.021E-22
  54194.300    -5.225E-22
  54194.368    -4.629E-22
  54194.436    -4.031E-22
  54194.505    -8.027E-23
  54194.573     1.434E-22
  54194.641     1.020E-22
  54194.709     1.991E-23
  54194.777    -9.635E-25
  54194.846    -1.437E-22
  54194.914    -6.301E-23
  54194.982     3.826E-23
  54195.050     1.398E-22
  54195.118     3.239E-22
  54195.187     2.823E-22
  54195.255     2.612E-22
  54195.323     3.429E-22
  54195.391     4.455E-22
  54195.459     3.625E-22
  54195.528     2.797E-22
  54195.596     1.562E-22
  54195.664     7.396E-23
  54195.732    -2.844E-23
  54195.801    -1.305E-22
  54195.869    -1.716E-22
  54195.937    -1.518E-22
  54196.005    -1.726E-22
  54196.073    -1.934E-22
  54196.142    -2.546E-22
  54196.210    -2.551E-22
  54196.278    -7.319E-23
  54196.346     7.696E-24
  54196.414    -3.353E-23
  54196.483     6.785E-23
  54196.551     2.516E-22
  54196.619     2.305E-22
  54196.687     1.685E-22
  54196.755    -7.675E-23
  54196.824    -1.179E-22
  54196.892     6.480E-23
  54196.960     2.075E-22
  54197.028     4.333E-22
  54197.097     4.327E-22
  54197.165     3.910E-22
  54197.233     3.905E-22
  54197.301     4.932E-22
  54197.369     5.134E-22
  54197.438     3.066E-22
  54197.506    -2.133E-23
  54197.574    -2.046E-22
  54197.642    -1.848E-22
  54197.710    -2.865E-22
  54197.779    -3.274E-22
  54197.847    -2.066E-22
  54197.915    -4.474E-23
  54197.983     9.750E-23
  54198.052     3.226E-22
  54198.120     5.492E-22
  54198.188     6.733E-22
  54198.256     6.519E-22
  54198.324     5.891E-22
  54198.393     6.094E-22
  54198.461     5.467E-22
  54198.529     2.984E-22
  54198.597     1.953E-22
  54198.666     3.115E-23
  54198.734    -1.118E-22
  54198.802    -1.326E-22
  54198.870    -1.534E-22
  54198.938    -2.350E-22
  54199.007    -4.975E-22
  54199.075    -5.181E-22
  54199.143    -4.382E-22
  54199.211    -2.168E-22
  54199.279    -9.559E-23
  54199.348    -1.773E-22
  54199.416    -2.183E-22
  54199.484    -1.783E-22
  54199.552    -1.382E-22
  54199.621    -1.388E-22
  54199.689    -7.832E-23
  54199.757    -7.883E-23
  54199.825    -2.214E-22
  54199.893    -3.028E-22
  54199.962    -2.426E-22
  54200.030    -3.240E-22
  54200.098    -3.850E-22
  54200.166    -2.644E-22
  54200.235    -2.134E-23
  54200.303     2.852E-22
  54200.371     2.847E-22
  54200.439     2.020E-22
  54200.507     1.810E-22
  54200.576     1.190E-22
  54200.644    -4.476E-23
  54200.712    -6.562E-23
  54200.780    -5.033E-24
  54200.849     1.579E-22
  54200.917     3.218E-22
  54200.985     4.450E-22
  54201.053     5.895E-22
  54201.122     9.019E-22
  54201.190     1.006E-21
  54201.258     9.428E-22
  54201.326     9.213E-22
  54201.394     6.493E-22
  54201.463     3.795E-22
  54201.531     1.733E-22
  54201.599     1.114E-22
  54201.667    -3.204E-23
  54201.736    -9.361E-23
  54201.804    -2.159E-22
  54201.872    -4.586E-22
  54201.940    -5.595E-22
  54202.008    -2.174E-22
  54202.077     4.650E-23
  54202.145     2.509E-22
  54202.213     3.327E-22
  54202.281     3.528E-22
  54202.350     2.083E-22
  54202.418     1.257E-22
  54202.486     1.867E-22
  54202.554     8.380E-23
  54202.623    -7.989E-23
  54202.691    -1.820E-22
  54202.759    -1.216E-22
  54202.827     1.432E-22
  54202.895     2.042E-22
  54202.964     8.074E-23
  54203.032    -1.462E-24
  54203.100    -1.444E-22
  54203.168    -2.261E-22
  54203.237    -6.413E-23
  54203.305     9.865E-23
  54203.373    -6.515E-23
  54203.441    -2.484E-22
  54203.510    -4.105E-22
  54203.578    -4.915E-22
  54203.646    -5.121E-22
  54203.714    -3.515E-22
  54203.783    -2.307E-22
  54203.851    -1.297E-22
  54203.919    -6.923E-23
  54203.987    -1.917E-22
  54204.055    -1.922E-22
  54204.124    -1.318E-22
  54204.192    -5.090E-23
  54204.260     3.018E-23
  54204.328     7.054E-23
  54204.397     1.110E-22
  54204.465     1.309E-22
  54204.533     2.125E-22
  54204.601     2.120E-22
  54204.670     1.704E-22
  54204.738     1.289E-22
  54204.806    -2.181E-22
  54204.874    -5.213E-22
  54204.943    -6.220E-22
  54205.011    -6.226E-22
  54205.079    -3.617E-22
  54205.147    -3.766E-23
  54205.216     2.279E-22
  54205.284     4.543E-22
  54205.352     4.331E-22
  54205.420     2.675E-22
  54205.488     2.464E-22
  54205.557     2.459E-22
  54205.625     3.690E-22
  54205.693     4.305E-22
  54205.761     2.855E-22
  54205.830     1.207E-22
  54205.898     2.639E-22
  54205.966     5.320E-22
  54206.034     7.188E-22
  54206.103     5.725E-22
  54206.171     2.413E-22
  54206.239    -2.085E-22
  54206.307    -4.112E-22
  54206.376    -4.520E-22
  54206.444    -3.719E-22
  54206.512    -6.825E-23
  54206.580     1.972E-22
  54206.649     2.378E-22
  54206.717     2.990E-22
  54206.785     2.162E-22
  54206.853     2.568E-22
  54206.922     1.741E-22
  54206.990     2.147E-22
  54207.058     2.553E-22
  54207.126     3.785E-22
  54207.195     4.814E-22
  54207.263     4.188E-22
  54207.331     2.121E-22
  54207.399    -5.450E-23
  54207.468    -1.365E-22
  54207.536    -1.166E-22
  54207.604    -9.678E-23
  54207.672    -1.380E-22
  54207.741     6.549E-23
  54207.809     2.702E-22
  54207.877     3.109E-22
  54207.945     2.486E-22
  54208.014     2.118E-24
  54208.082    -1.817E-22
  54208.150    -2.633E-22
  54208.218    -4.457E-22
  54208.287    -7.071E-22
  54208.355    -8.273E-22
  54208.423    -7.480E-22
  54208.491    -6.486E-22
  54208.560    -5.488E-22
  54208.628    -6.095E-22
  54208.696    -6.501E-22
  54208.764    -3.287E-22
  54208.833    -2.443E-23
  54208.901     2.827E-22
  54208.969     5.303E-22
  54209.037     4.262E-22
  54209.106     4.671E-22
  54209.174     6.120E-22
  54209.242     5.906E-22
  54209.310     3.621E-22
  54209.379     7.370E-23
  54209.447    -4.943E-23
  54209.515    -9.071E-23
  54209.583     1.081E-23
  54209.652    -1.528E-22
  54209.720    -4.771E-22
  54209.788    -6.983E-22
  54209.856    -7.388E-22
  54209.925    -5.590E-22
  54209.993    -3.176E-22
  54210.061    -9.479E-23
  54210.129     4.762E-23
  54210.198     1.291E-22
  54210.266     4.660E-23
  54210.334    -1.782E-22
  54210.402    -3.004E-22
  54210.471    -3.616E-22
  54210.539    -4.429E-22
  54210.607    -3.424E-22
  54210.675    -9.939E-23
  54210.744     6.349E-23
  54210.812     1.245E-22
  54210.880     2.267E-22
  54210.948     2.673E-22
  54211.017     2.257E-22
  54211.085     1.635E-22
  54211.153     1.014E-22
  54211.221     1.419E-22
  54211.290     2.854E-22
  54211.358     3.675E-22
  54211.426     4.083E-22
  54211.494     4.078E-22
  54211.563     3.866E-22
  54211.631     1.594E-22
  54211.699    -2.546E-23
  54211.768    -5.539E-24
  54211.836     1.990E-22
  54211.904     4.047E-22
  54211.972     3.629E-22
  54212.041     1.769E-22
  54212.109     3.280E-23
  54212.177    -6.986E-23
  54212.245    -2.955E-23
  54212.314     1.132E-22
  54212.382     1.332E-22
  54212.450     5.072E-23
  54212.518    -1.116E-23
  54212.587    -2.357E-22
  54212.655    -2.768E-22
  54212.723    -3.178E-22
  54212.791    -3.386E-22
  54212.860    -3.188E-22
  54212.928    -3.800E-22
  54212.996    -4.007E-22
  54213.064    -2.190E-22
  54213.133     4.684E-24
  54213.201     2.093E-22
  54213.269     3.325E-22
  54213.338     4.769E-22
  54213.406     6.636E-22
  54213.474     7.676E-22
  54213.542     8.510E-22
  54213.611     8.085E-22
  54213.679     5.991E-22
  54213.747     3.909E-22
  54213.815     1.841E-22
  54213.884     1.220E-22
  54213.952     1.010E-22
  54214.020    -8.365E-23
  54214.088    -2.672E-22
  54214.157    -4.296E-22
  54214.225    -7.115E-22
  54214.293    -6.720E-22
  54214.362    -3.705E-22
  54214.430    -2.547E-23
  54214.498     1.996E-22
  54214.566     1.580E-22
  54214.635     9.585E-23
  54214.703    -4.794E-23
  54214.771    -3.129E-22
  54214.839    -4.347E-22
  54214.908    -3.746E-22
  54214.976    -3.347E-22
  54215.044    -4.161E-22
  54215.113    -4.570E-22
  54215.181    -2.957E-22
  54215.249    -2.353E-22
  54215.317    -3.212E-23
  54215.386     1.518E-22
  54215.454     2.130E-22
  54215.522     1.097E-22
  54215.590    -3.416E-23
  54215.659    -1.774E-22
  54215.727    -1.983E-22
  54215.795    -1.784E-22
  54215.864    -1.586E-22
  54215.932    -1.795E-22
  54216.000    -1.596E-22
  54216.068    -1.194E-22
  54216.137     4.360E-23
  54216.205     6.358E-23
  54216.273     4.257E-23
  54216.341    -3.979E-23
  54216.410     6.204E-23
  54216.478     2.672E-22
  54216.546     3.080E-22
  54216.615     1.837E-22
  54216.683     8.051E-23
  54216.751     1.851E-23
  54216.819    -1.250E-22
  54216.888    -3.287E-22
  54216.956    -4.708E-22
  54217.024    -4.713E-22
  54217.092    -4.718E-22
  54217.161    -5.931E-22
  54217.229    -7.140E-22
  54217.297    -6.142E-22
  54217.366    -4.537E-22
  54217.434    -3.936E-22
  54217.502    -2.319E-22
  54217.570    -2.121E-22
  54217.639    -1.311E-22
  54217.707    -1.113E-22
  54217.775     5.181E-23
  54217.844     1.334E-22
  54217.912     1.740E-22
  54217.980     2.559E-22
  54218.048     2.554E-22
  54218.117     2.755E-22
  54218.185     1.308E-22
  54218.253     8.926E-23
  54218.322    -1.566E-22
  54218.390    -4.209E-22
  54218.458    -6.831E-22
  54218.526    -7.437E-22
  54218.595    -5.032E-22
  54218.663    -1.592E-22
  54218.731    -3.725E-23
  54218.799     1.262E-22
  54218.868     3.940E-22
  54218.936     3.935E-22
  54219.004     3.930E-22
  54219.073     3.304E-22
  54219.141     3.712E-22
  54219.209     4.329E-22
  54219.277     4.739E-22
  54219.346     3.904E-22
  54219.414     2.039E-22
  54219.482     1.211E-22
  54219.551     2.235E-22
  54219.619     1.818E-22
  54219.687     2.431E-22
  54219.755     4.081E-22
  54219.824     4.076E-22
  54219.892     2.004E-22
  54219.960    -2.600E-23
  54220.029    -1.898E-22
  54220.097     1.392E-23
  54220.165    -8.887E-23
  54220.233    -1.302E-22
  54220.302     3.288E-23
  54220.370     1.556E-22
  54220.438     2.169E-22
  54220.507     2.783E-22
  54220.575     3.191E-22
  54220.643     2.979E-22
  54220.711     1.325E-22
  54220.780     2.930E-23
  54220.848    -1.219E-23
  54220.916    -7.407E-23
  54220.985    -1.562E-22
  54221.053    -1.363E-22
  54221.121    -5.516E-23
  54221.190    -1.475E-23
  54221.258    -5.619E-23
  54221.326    -9.757E-23
  54221.394     4.194E-24
  54221.463     8.574E-23
  54221.531     1.675E-22
  54221.599     2.288E-22
  54221.668     6.367E-23
  54221.736    -1.211E-22
  54221.804    -3.858E-22
  54221.872    -4.470E-22
  54221.941    -3.666E-22
  54222.009    -2.250E-22
  54222.077    -8.277E-23
  54222.146    -1.445E-22
  54222.214    -1.451E-22
  54222.282     1.803E-23
  54222.350     5.855E-23
  54222.419     1.197E-22
  54222.487    -4.495E-23
  54222.555    -2.494E-22
  54222.624    -3.717E-22
  54222.692    -2.098E-22
  54222.760    -6.745E-23
  54222.829    -6.560E-24
  54222.897    -4.802E-23
  54222.965    -1.303E-22
  54223.033    -1.512E-22
  54223.102     7.344E-23
  54223.170     1.964E-22
  54223.238     2.991E-22
  54223.307     4.229E-22
  54223.375     5.472E-22
  54223.443     4.843E-22
  54223.512     3.799E-22
  54223.580     4.417E-22
  54223.648     3.374E-22
  54223.716     2.749E-22
  54223.785     1.094E-22
  54223.853     6.250E-24
  54223.921     4.676E-23
  54223.990    -9.712E-23
  54224.058    -7.719E-23
  54224.126    -9.814E-23
  54224.195     2.420E-23
  54224.263     2.914E-22
  54224.331     2.083E-22
  54224.399     2.491E-22
  54224.468     3.313E-22
  54224.536     3.101E-22
  54224.604     3.096E-22
  54224.673     2.677E-22
  54224.741     1.023E-22
  54224.809    -2.142E-23
  54224.878     2.249E-22
  54224.946     5.355E-22
  54225.014     6.393E-22
  54225.082     5.553E-22
  54225.151     4.715E-22
  54225.219     3.257E-22
  54225.287     2.218E-22
  54225.356     2.626E-22
  54225.424     1.177E-22
  54225.492    -6.749E-23
  54225.561    -1.905E-22
  54225.629    -2.725E-22
  54225.697    -5.363E-22
  54225.765    -7.580E-22
  54225.834    -7.985E-22
  54225.902    -5.983E-22
  54225.970    -4.778E-22
  54226.039    -4.379E-22
  54226.107    -2.964E-22
  54226.175    -1.135E-22
  54226.244     1.115E-22
  54226.312     1.522E-22
  54226.380     1.517E-22
  54226.449     2.780E-23
  54226.517    -3.423E-23
  54226.585     6.786E-23
  54226.653     6.734E-23
  54226.722     2.730E-22
  54226.790     6.051E-22
  54226.858     7.721E-22
  54226.927     8.557E-22
  54226.995     7.082E-22
  54227.063     4.987E-22
  54227.132     2.492E-22
  54227.200     8.380E-23
  54227.268     4.218E-23
  54227.337     1.033E-22
  54227.405     2.265E-22
  54227.473     2.880E-22
  54227.541     1.636E-22
  54227.610     6.017E-23
  54227.678     1.214E-22
  54227.746     1.415E-22
  54227.815     5.863E-23
  54227.883    -1.468E-22
  54227.951    -2.492E-22
  54228.020    -8.646E-23
  54228.088     2.008E-22
  54228.156     3.243E-22
  54228.225     5.108E-22
  54228.293     6.147E-22
  54228.361     6.351E-22
  54228.430     6.764E-22
  54228.498     8.229E-22
  54228.566     9.700E-22
  54228.634     9.695E-22
  54228.703     9.478E-22
  54228.771     9.262E-22
  54228.839     9.257E-22
  54228.908     9.463E-22
  54228.976     8.614E-22
  54229.044     6.718E-22
  54229.113     6.295E-22
  54229.181     6.499E-22
  54229.249     6.703E-22
  54229.318     5.652E-22
  54229.386     3.773E-22
  54229.454     2.525E-22
  54229.523     1.694E-22
  54229.591     1.482E-22
  54229.659     2.716E-22
  54229.728     4.996E-22
  54229.796     5.199E-22
  54229.864     3.115E-22
  54229.932     1.663E-22
  54230.001    -1.013E-22
  54230.069    -1.427E-22
  54230.137    -4.092E-23
  54230.206     1.642E-22
  54230.274     2.877E-22
  54230.342     2.458E-22
  54230.411     1.859E-23
  54230.479    -2.297E-23
  54230.547     1.617E-22
  54230.616     3.266E-22
  54230.684     4.715E-22
  54230.752     4.294E-22
  54230.821     2.629E-22
  54230.889    -5.533E-24
  54230.957    -1.290E-22
  54231.026    -1.499E-22
  54231.094    -1.504E-22
  54231.162    -2.122E-22
  54231.231    -1.923E-22
  54231.299     7.360E-23
  54231.367     7.308E-23
  54231.436    -9.164E-23
  54231.504    -1.944E-22
  54231.572    -2.357E-22
  54231.641    -9.318E-23
  54231.709    -7.321E-23
  54231.777    -7.373E-23
  54231.845     6.949E-23
  54231.914     6.898E-23
  54231.982    -9.575E-23
  54232.050    -1.576E-22
  54232.119    -1.477E-23
  54232.187     2.941E-22
  54232.255     5.640E-22
  54232.324     7.942E-22
  54232.392     7.726E-22
  54232.460     5.416E-22
  54232.529     3.745E-22
  54232.597     4.364E-22
  54232.665     6.237E-22
  54232.734     5.396E-22
  54232.802     1.241E-22
  54232.870    -1.842E-22
  54232.939    -3.680E-22
  54233.007    -3.482E-22
  54233.075     6.025E-23
  54233.144     4.114E-22
  54233.212     6.196E-22
  54233.280     5.355E-22
  54233.349     3.476E-22
  54233.417     1.401E-22
  54233.485    -8.656E-23
  54233.554    -4.607E-23
  54233.622     1.798E-22
  54233.690     4.281E-22
  54233.759     4.901E-22
  54233.827     4.479E-22
  54233.895     5.308E-22
  54233.964     6.139E-22
  54234.032     8.024E-22
  54234.100     9.919E-22
  54234.169     1.161E-21
  54234.237     1.139E-21
  54234.305     1.267E-21
  54234.374     1.373E-21
  54234.442     1.266E-21
  54234.510     1.501E-21
  54234.579     1.847E-21
  54234.647     2.086E-21
  54234.715     2.371E-21
  54234.784     2.771E-21
  54234.852     3.153E-21
  54234.920     3.677E-21
  54234.989     4.116E-21
  54235.057     4.350E-21
  54235.125     4.467E-21
  54235.194     4.466E-21
  54235.262     4.301E-21
  54235.330     4.067E-21
  54235.399     3.950E-21
  54235.467     3.973E-21
  54235.535     4.019E-21
  54235.604     3.856E-21
  54235.672     3.557E-21
  54235.740     3.350E-21
  54235.809     3.078E-21
  54235.877     2.852E-21
  54235.945     2.539E-21
  54236.014     2.207E-21
  54236.082     1.901E-21
  54236.150     1.705E-21
  54236.219     1.531E-21
  54236.287     1.402E-21
  54236.355     1.444E-21
  54236.424     1.616E-21
  54236.492     1.637E-21
  54236.560     1.658E-21
  54236.629     1.507E-21
  54236.697     1.121E-21
  54236.765     6.767E-22
  54236.834     3.214E-22
  54236.902     1.965E-22
  54236.970     1.547E-22
  54237.039     1.748E-22
  54237.107     2.364E-22
  54237.175     2.773E-22
  54237.244     2.768E-22
  54237.312     2.348E-22
  54237.380     2.758E-22
  54237.449     4.624E-22
  54237.517     7.762E-22
  54237.586     1.029E-21
  54237.654     1.029E-21
  54237.722     7.746E-22
  54237.791     5.224E-22
  54237.859     3.137E-22
  54237.927     2.302E-22
  54237.996     2.504E-22
  54238.064     4.161E-22
  54238.132     4.572E-22
  54238.201     3.526E-22
  54238.269     1.449E-22
  54238.337     1.240E-25
  54238.406    -1.235E-22
  54238.474    -2.263E-22
  54238.542    -2.881E-22
  54238.611    -3.293E-22
  54238.679    -1.666E-22
  54238.747    -1.261E-22
  54238.816    -3.474E-24
  54238.884     1.403E-22
  54238.952     1.811E-22
  54239.021     1.393E-22
  54239.089     1.594E-22
  54239.157     3.662E-22
  54239.226     3.657E-22
  54239.294     1.372E-22
  54239.363    -7.587E-24
  54239.431     5.365E-23
  54239.499     2.184E-22
  54239.568     2.801E-22
  54239.636     2.588E-22
  54239.704     2.790E-22
  54239.773     2.578E-22
  54239.841     1.124E-22
  54239.909     8.871E-24
  54239.978    -1.354E-22
  54240.046    -7.437E-23
  54240.114    -9.540E-23
  54240.183     6.814E-24
  54240.251     2.334E-22
  54240.319     3.367E-22
  54240.388     2.531E-22
  54240.456     1.905E-22
  54240.524    -3.689E-23
  54240.593    -3.239E-22
  54240.661    -2.428E-22
  54240.730    -1.000E-22
  54240.798     2.186E-24
  54240.866     6.346E-23
  54240.935    -3.997E-23
  54241.003    -1.226E-22
  54241.071    -1.436E-22
  54241.140    -6.206E-23
  54241.208    -9.003E-25
  54241.276    -2.199E-23
  54241.345    -1.047E-22
  54241.413    -1.871E-22
  54241.481    -2.285E-22
  54241.550    -3.107E-22
  54241.618    -2.908E-22
  54241.686    -1.892E-22
  54241.755    -2.306E-22
  54241.823    -2.720E-22
  54241.892    -2.521E-22
  54241.960    -2.730E-22
  54242.028    -2.531E-22
  54242.097    -2.740E-22
  54242.165    -1.313E-22
  54242.233    -9.082E-23
  54242.302    -2.970E-23
  54242.370     1.094E-23
  54242.438    -5.129E-23
  54242.507    -5.180E-23
  54242.575    -3.176E-23
  54242.643    -1.554E-22
  54242.712    -1.355E-22
  54242.780    -1.360E-22
  54242.849    -1.570E-22
  54242.917    -1.575E-22
  54242.985    -5.541E-23
  54243.054     1.296E-22
  54243.122     2.948E-22
  54243.190     3.359E-22
  54243.259     4.813E-22
  54243.327     4.182E-22
  54243.395     2.098E-22
  54243.464     1.885E-22
  54243.532     1.673E-22
  54243.601     1.255E-22
  54243.669     1.162E-24
  54243.737    -2.046E-22
  54243.806    -1.642E-22
  54243.874    -1.647E-22
  54243.942    -1.447E-22
  54244.011    -1.247E-22
  54244.079    -1.457E-22
  54244.147    -1.463E-22
  54244.216     3.825E-23
  54244.284     2.446E-22
  54244.353     4.313E-22
  54244.421     3.891E-22
  54244.489     1.188E-22
  54244.558    -3.741E-22
  54244.626    -7.592E-22
  54244.694    -8.401E-22
  54244.763    -7.199E-22
  54244.831    -3.965E-22
  54244.899    -4.173E-22
  54244.968    -4.788E-22
  54245.036    -4.590E-22
  54245.105    -4.392E-22
  54245.173    -3.787E-22
  54245.241    -1.955E-22
  54245.310     9.406E-24
  54245.378     3.402E-22
  54245.446     5.695E-22
  54245.515     5.270E-22
  54245.583     2.555E-22
  54245.651    -1.371E-22
  54245.720    -4.032E-22
  54245.788    -3.222E-22
  54245.857    -1.386E-22
  54245.925     2.538E-23
  54245.993     1.281E-22
  54246.062     2.312E-22
  54246.130     2.930E-22
  54246.198     1.473E-22
  54246.267     2.296E-22
  54246.335     2.914E-22
  54246.404     4.159E-22
  54246.472     4.153E-22
  54246.540     2.691E-22
  54246.609     1.028E-22
  54246.677    -8.320E-23
  54246.745    -2.477E-22
  54246.814    -2.891E-22
  54246.882    -3.712E-22
  54246.951    -3.310E-22
  54247.019    -2.498E-22
  54247.087    -2.298E-22
  54247.156    -2.508E-22
  54247.224    -2.718E-22
  54247.292    -1.699E-22
  54247.361    -4.722E-23
  54247.429     3.468E-23
  54247.498    -7.073E-24
  54247.566    -1.310E-22
  54247.634    -3.361E-22
  54247.703    -2.345E-22
  54247.771    -1.325E-22
  54247.839    -3.025E-23
  54247.908     9.302E-23
  54247.976     3.415E-22
  54248.045     2.785E-22
  54248.113    -1.146E-22
  54248.181    -4.421E-22
  54248.250    -5.846E-22
  54248.318    -6.256E-22
  54248.386    -6.261E-22
  54248.455    -6.266E-22
  54248.523    -5.664E-22
  54248.592    -2.207E-22
  54248.660     4.604E-23
  54248.728     8.683E-23
  54248.797     1.277E-22
  54248.865     1.686E-22
  54248.933     1.267E-22
  54249.002     4.346E-23
  54249.070     6.360E-23
  54249.139     1.251E-22
  54249.207     1.660E-22
  54249.275     2.277E-22
  54249.344     2.064E-22
  54249.412     1.852E-22
  54249.480     1.639E-22
  54249.549     3.934E-23
  54249.617    -1.464E-22
  54249.686    -3.107E-22
  54249.754    -3.113E-22
  54249.822    -2.505E-22
  54249.891    -2.510E-22
  54249.959    -8.737E-23
  54250.028     2.220E-22
  54250.096     2.215E-22
  54250.164     2.003E-22
  54250.233     1.169E-22
  54250.301    -1.105E-22
  54250.369     1.252E-23
  54250.438     5.329E-23
  54250.506    -2.975E-23
  54250.575    -5.086E-23
  54250.643    -1.336E-22
  54250.711    -1.136E-22
  54250.780    -1.347E-22
  54250.848    -1.146E-22
  54250.917     4.968E-23
  54250.985     4.916E-23
  54251.053     2.800E-23
  54251.122    -3.438E-23
  54251.190     2.697E-23
  54251.258     6.776E-23
  54251.327     6.725E-23
  54251.395     4.786E-24
  54251.464    -2.833E-22
  54251.532    -4.876E-22
  54251.600    -6.503E-22
  54251.669    -4.887E-22
  54251.737    -3.058E-22
  54251.806    -3.267E-22
  54251.874    -4.292E-22
  54251.942    -4.297E-22
  54252.011    -2.874E-22
  54252.079    -2.060E-22
  54252.147    -1.039E-22
  54252.216    -2.202E-23
  54252.284     1.872E-23
  54252.353     1.216E-22
  54252.421     2.040E-22
  54252.489     1.717E-23
  54252.558    -4.521E-23
  54252.626    -4.573E-23
  54252.695    -8.743E-23
  54252.763    -1.496E-22
  54252.831    -8.846E-23
  54252.900     7.606E-23
  54252.968     5.487E-23
  54253.037    -3.156E-22
  54253.105    -5.198E-22
  54253.173    -4.594E-22
  54253.242    -3.988E-22
  54253.310    -7.148E-23
  54253.379     1.760E-22
  54253.447     2.586E-22
  54253.515     2.373E-22
  54253.584     2.160E-22
  54253.652     7.039E-23
  54253.721    -5.398E-23
  54253.789    -1.574E-22
  54253.857    -3.422E-22
  54253.926    -3.835E-22
  54253.994    -3.228E-22
  54254.062    -2.415E-22
  54254.131    -1.188E-22
  54254.199    -2.220E-22
  54254.268    -2.840E-22
  54254.336    -3.662E-22
  54254.404    -4.686E-22
  54254.473    -4.081E-22
  54254.541    -2.246E-22
  54254.610    -1.430E-22
  54254.678    -8.180E-23
  54254.746    -8.232E-23
  54254.815    -1.651E-22
  54254.883    -1.451E-22
  54254.952    -1.456E-22
  54255.020    -1.461E-22
  54255.088     1.822E-23
  54255.157     2.457E-22
  54255.225     4.748E-22
  54255.294     3.906E-22
  54255.362     1.403E-22
  54255.430    -1.903E-22
  54255.499    -4.769E-22
  54255.567    -5.587E-22
  54255.636    -5.592E-22
  54255.704    -4.988E-22
  54255.772    -4.790E-22
  54255.841    -2.754E-22
  54255.909    -2.144E-22
  54255.978    -1.944E-22
  54256.046    -2.564E-22
  54256.114    -4.408E-22
  54256.183    -4.821E-22
  54256.251    -3.807E-22
  54256.320    -2.790E-22
  54256.388    -1.359E-22
  54256.456     2.856E-23
  54256.525     1.523E-22
  54256.593    -5.504E-23
  54256.662    -1.379E-22
  54256.730    -2.206E-22
  54256.798    -2.416E-22
  54256.867    -1.395E-22
  54256.935     8.701E-23
  54257.004     2.526E-22
  54257.072     2.105E-22
  54257.140     8.546E-23
  54257.209    -5.969E-23
  54257.277    -1.014E-22
  54257.346    -6.072E-23
  54257.414    -1.436E-22
  54257.483    -4.308E-22
  54257.551    -5.940E-22
  54257.619    -5.132E-22
  54257.688    -3.711E-22
  54257.756    -3.716E-22
  54257.825    -4.130E-22
  54257.893    -2.909E-22
  54257.961    -6.537E-23
  54258.030     1.617E-22
  54258.098     2.860E-22
  54258.167     3.898E-22
  54258.235     3.475E-22
  54258.303     1.804E-22
  54258.372     9.688E-23
  54258.440     1.171E-22
  54258.509     1.307E-23
  54258.577    -1.524E-22
  54258.645    -3.170E-22
  54258.714    -4.401E-22
  54258.782    -2.771E-22
  54258.851    -1.544E-22
  54258.919     1.135E-22
  54258.988     3.001E-22
  54259.056     3.204E-22
  54259.124     4.244E-22
  54259.193     4.868E-22
  54259.261     5.072E-22
  54259.330     3.393E-22
  54259.398     1.929E-22
  54259.466     5.842E-24
  54259.535    -9.786E-23
  54259.603    -1.396E-22
  54259.672    -1.606E-22
  54259.740    -2.023E-22
  54259.808    -5.869E-23
  54259.877     1.270E-22
  54259.945     1.472E-22
  54260.014     2.238E-23
  54260.082    -1.020E-22
  54260.151    -1.999E-23
  54260.219     4.152E-23
  54260.287     1.239E-22
  54260.356     1.857E-22
  54260.424    -4.270E-23
  54260.493    -4.535E-22
  54260.561    -5.761E-22
  54260.629    -5.766E-22
  54260.698    -4.754E-22
  54260.766    -3.739E-22
  54260.835    -2.926E-22
  54260.903    -2.931E-22
  54260.972    -1.705E-22
  54261.040    -1.092E-22
  54261.108    -8.913E-23
  54261.177    -4.839E-23
  54261.245     7.519E-23
  54261.314     1.257E-23
  54261.382    -2.967E-22
  54261.450    -4.811E-22
  54261.519    -4.204E-22
  54261.587    -2.573E-22
  54261.656    -2.578E-22
  54261.724    -5.035E-22
  54261.793    -7.879E-22
  54261.861    -8.287E-22
  54261.929    -5.661E-22
  54261.998    -1.988E-22
  54262.066     2.352E-22
  54262.135     4.646E-22
  54262.203     4.012E-22
  54262.272     3.170E-22
  54262.340     2.123E-22
  54262.408     6.640E-23
  54262.477     6.589E-23
  54262.545    -3.807E-23
  54262.614    -1.211E-22
  54262.682    -2.860E-22
  54262.750    -3.480E-22
  54262.819    -3.076E-22
  54262.887    -2.466E-22
  54262.956    -1.649E-22
  54263.024     1.240E-22
  54263.093     2.483E-22
  54263.161     2.894E-22
  54263.229     2.681E-22
  54263.298     2.467E-22
  54263.366     2.045E-22
  54263.435     2.248E-22
  54263.503     2.452E-22
  54263.572     1.198E-22
  54263.640    -6.699E-23
  54263.708    -1.500E-22
  54263.777    -2.328E-22
  54263.845    -2.538E-22
  54263.914    -2.748E-22
  54263.982    -1.108E-22
  54264.051     1.162E-22
  54264.119     9.495E-23
  54264.187    -9.142E-24
  54264.256    -5.100E-23
  54264.324    -1.958E-22
  54264.393    -3.195E-22
  54264.461    -2.995E-22
  54264.530    -3.819E-22
  54264.598    -3.620E-22
  54264.666    -1.778E-22
  54264.735    -7.527E-23
  54264.803    -1.380E-23
  54264.872    -1.431E-23
  54264.940    -7.682E-23
  54265.009    -9.797E-23
  54265.077    -1.587E-23
  54265.145     6.645E-23
  54265.214     2.114E-22
  54265.282     4.408E-22
  54265.351     5.453E-22
  54265.419     5.658E-22
  54265.488     6.496E-22
  54265.556     6.914E-22
  54265.624     6.064E-22
  54265.693     4.167E-22
  54265.761     1.033E-22
  54265.830    -2.277E-22
  54265.898    -5.554E-22
  54265.967    -9.202E-22
  54266.035    -1.061E-21
  54266.103    -9.815E-22
  54266.172    -6.388E-22
  54266.240    -2.719E-22
  54266.309    -1.490E-22
  54266.377     1.402E-22
  54266.446     2.855E-22
  54266.514     3.477E-22
  54266.583     3.890E-22
  54266.651     3.466E-22
  54266.719     3.880E-22
  54266.788     3.038E-22
  54266.856     2.615E-22
  54266.925     3.864E-22
  54266.993     5.329E-22
  54267.062     6.166E-22
  54267.130     8.065E-22
  54267.198     9.123E-22
  54267.267     9.330E-22
  54267.335     7.838E-22
  54267.404     5.508E-22
  54267.472     5.082E-22
  54267.541     3.190E-22
  54267.609     1.933E-22
  54267.677    -1.484E-23
  54267.746    -7.738E-23
  54267.814    -9.855E-23
  54267.883    -3.708E-23
  54267.951     1.075E-22
  54268.020     3.363E-22
  54268.088     4.825E-22
  54268.157     6.506E-22
  54268.225     6.712E-22
  54268.293     7.341E-22
  54268.362     5.436E-22
  54268.430     3.751E-22
  54268.499     4.794E-22
  54268.567     4.159E-22
  54268.636     3.107E-22
  54268.704     2.893E-22
  54268.773     1.845E-22
  54268.841     1.216E-22
  54268.909     1.003E-22
  54268.978     7.897E-23
  54269.046     2.033E-22
  54269.115     2.236E-22
  54269.183     1.606E-22
  54269.252    -2.674E-23
  54269.320    -1.512E-22
  54269.389    -7.074E-24
  54269.457     1.312E-23
  54269.525     9.559E-23
  54269.594     1.783E-22
  54269.662     2.612E-22
  54269.731     3.652E-22
  54269.799     3.857E-22
  54269.868     2.179E-22
  54269.936     2.174E-22
  54270.005     3.422E-22
  54270.073     2.372E-22
  54270.141     7.945E-24
  54270.210    -5.468E-23
  54270.278     6.909E-24
  54270.347     2.351E-22
  54270.415     3.600E-22
  54270.484     5.486E-22
  54270.552     1.015E-21
  54270.621     1.207E-21
  54270.689     1.358E-21
  54270.757     1.595E-21
  54270.826     1.682E-21
  54270.894     1.529E-21
  54270.963     1.572E-21
  54271.031     1.724E-21
  54271.100     1.921E-21
  54271.168     2.097E-21
  54271.237     2.052E-21
  54271.305     2.118E-21
  54271.374     2.406E-21
  54271.442     2.809E-21
  54271.510     3.286E-21
  54271.579     3.747E-21
  54271.647     4.191E-21
  54271.716     4.617E-21
  54271.784     4.808E-21
  54271.853     4.880E-21
  54271.921     4.807E-21
  54271.990     4.663E-21
  54272.058     4.543E-21
  54272.126     4.567E-21
  54272.195     4.590E-21
  54272.263     4.661E-21
  54272.332     4.470E-21
  54272.400     3.927E-21
  54272.469     3.532E-21
  54272.537     3.347E-21
  54272.606     3.255E-21
  54272.674     3.026E-21
  54272.743     2.754E-21
  54272.811     2.439E-21
  54272.879     2.106E-21
  54272.948     1.907E-21
  54273.016     1.862E-21
  54273.085     1.840E-21
  54273.153     1.708E-21
  54273.222     1.360E-21
  54273.290     1.080E-21
  54273.359     1.015E-21
  54273.427     1.079E-21
  54273.496     1.121E-21
  54273.564     1.099E-21
  54273.633     9.488E-22
  54273.701     8.418E-22
  54273.769     7.563E-22
  54273.838     5.232E-22
  54273.906     6.282E-22
  54273.975     7.123E-22
  54274.043     7.754E-22
  54274.112     8.813E-22
  54274.180     1.009E-21
  54274.249     1.072E-21
  54274.317     9.650E-22
  54274.386     7.304E-22
  54274.454     5.818E-22
  54274.522     4.339E-22
  54274.591     3.284E-22
  54274.659     3.279E-22
  54274.728     4.533E-22
  54274.796     5.159E-22
  54274.865     5.365E-22
  54274.933     5.993E-22
  54275.002     6.834E-22
  54275.070     8.740E-22
  54275.139     9.588E-22
  54275.207     1.065E-21
  54275.276     1.280E-21
  54275.344     1.452E-21
  54275.412     1.582E-21
  54275.481     1.712E-21
  54275.549     1.690E-21
  54275.618     1.733E-21
  54275.686     1.908E-21
  54275.755     2.106E-21
  54275.823     2.350E-21
  54275.892     2.327E-21
  54275.960     2.304E-21
  54276.029     2.505E-21
  54276.097     2.706E-21
  54276.166     2.571E-21
  54276.234     2.391E-21
  54276.303     2.592E-21
  54276.371     3.089E-21
  54276.439     3.479E-21
  54276.508     3.943E-21
  54276.576     4.366E-21
  54276.645     4.868E-21
  54276.713     5.499E-21
  54276.782     6.193E-21
  54276.850     7.289E-21
  54276.919     8.584E-21
  54276.987     9.820E-21
  54277.056     1.102E-20
  54277.124     1.229E-20
  54277.193     1.355E-20
  54277.261     1.473E-20
  54277.330     1.542E-20
  54277.398     1.613E-20
  54277.466     1.675E-20
  54277.535     1.681E-20
  54277.603     1.657E-20
  54277.672     1.603E-20
  54277.740     1.539E-20
  54277.809     1.470E-20
  54277.877     1.428E-20
  54277.946     1.374E-20
  54278.014     1.292E-20
  54278.083     1.219E-20
  54278.151     1.148E-20
  54278.220     1.101E-20
  54278.288     1.037E-20
  54278.357     9.475E-21
  54278.425     8.384E-21
  54278.494     7.276E-21
  54278.562     6.305E-21
  54278.631     5.411E-21
  54278.699     4.756E-21
  54278.767     4.421E-21
  54278.836     4.019E-21
  54278.904     3.668E-21
  54278.973     3.414E-21
  54279.041     3.138E-21
  54279.110     2.842E-21
  54279.178     2.705E-21
  54279.247     2.525E-21
  54279.315     2.323E-21
  54279.384     2.101E-21
  54279.452     1.836E-21
  54279.521     1.704E-21
  54279.589     1.681E-21
  54279.658     1.637E-21
  54279.726     1.506E-21
  54279.795     1.375E-21
  54279.863     1.094E-21
  54279.932     8.159E-22
  54280.000     4.555E-22
  54280.069     2.242E-22
  54280.137     3.074E-22
  54280.205     4.329E-22
  54280.274     5.588E-22
  54280.342     7.277E-22
  54280.411     8.975E-22
  54280.479     8.117E-22
  54280.548     8.538E-22
  54280.616     8.746E-22
  54280.685     8.315E-22
  54280.753     5.763E-22
  54280.822     2.812E-22
  54280.890     1.553E-22
  54280.959     9.222E-23
  54281.027     2.169E-22
  54281.096     5.737E-22
  54281.164     8.278E-22
  54281.233     1.020E-21
  54281.301     1.105E-21
  54281.370     1.061E-21
  54281.438     9.538E-22
  54281.507     7.614E-22
  54281.575     5.490E-22
  54281.644     5.062E-22
  54281.712     4.635E-22
  54281.781     5.263E-22
  54281.849     3.783E-22
  54281.918     4.199E-22
  54281.986     5.036E-22
  54282.054     5.876E-22
  54282.123     6.294E-22
  54282.191     4.810E-22
  54282.260     3.963E-22
  54282.328     3.327E-22
  54282.397     2.693E-22
  54282.465     1.433E-22
  54282.534     3.865E-23
  54282.602     1.006E-22
  54282.671     7.924E-23
  54282.739     1.630E-23
  54282.808     1.616E-22
  54282.876     2.866E-22
  54282.945     4.542E-22
  54283.013     5.169E-22
  54283.082     5.164E-22
  54283.150     6.852E-22
  54283.219     8.976E-22
  54283.287     8.757E-22
  54283.356     6.624E-22
  54283.424     4.295E-22
  54283.493     2.610E-22
  54283.561     5.167E-23
  54283.630    -2.183E-22
  54283.698    -2.807E-22
  54283.767    -3.430E-22
  54283.835    -4.051E-22
  54283.904    -3.646E-22
  54283.972    -2.003E-22
  54284.041    -9.734E-23
  54284.109    -1.806E-22
  54284.178    -2.018E-22
  54284.246    -9.889E-23
  54284.315     1.920E-22
  54284.383     4.433E-22
  54284.452     5.622E-22
  54284.520     5.698E-22
  54284.589     4.877E-22
  54284.657     2.744E-22
  54284.726    -4.522E-23
  54284.794    -3.849E-22
  54284.863    -4.354E-22
  54284.931    -9.888E-23
  54285.000     3.664E-22
  54285.068     7.266E-22
  54285.137     8.085E-22
  54285.205     7.460E-22
  54285.274     4.594E-22
  54285.342     2.904E-22
  54285.410     3.388E-22
  54285.479     5.680E-22
  54285.547     7.373E-22
  54285.616     8.518E-22
  54285.684     7.223E-22
  54285.753     7.069E-22
  54285.821     8.711E-22
  54285.890     8.180E-22
  54285.958     5.470E-22
  54286.027     1.805E-22
  54286.095     1.158E-22
  54286.164     1.074E-22
  54286.232     2.456E-22
  54286.301     2.999E-22
  54286.369     3.671E-22
  54286.438     2.003E-22
  54286.506    -5.895E-23
  54286.575    -7.615E-23
  54286.643    -9.159E-23
  54286.712     7.312E-24
  54286.780     5.465E-23
  54286.849     2.246E-22
  54286.917     5.901E-22
  54286.986     6.706E-22
  54287.054     6.770E-22
  54287.123     6.691E-22
  54287.191     3.355E-22
  54287.260     9.389E-23
  54287.328     5.804E-23
  54287.397    -8.309E-23
  54287.465    -1.728E-22
  54287.534    -2.352E-22
  54287.602    -3.485E-22
  54287.671    -3.124E-22
  54287.739    -1.331E-22
  54287.808    -9.667E-23
  54287.876    -6.900E-23
  54287.945     4.785E-23
  54288.013     1.828E-22
  54288.082     5.603E-22
  54288.150     7.183E-22
  54288.219     6.413E-22
  54288.287     6.297E-22
  54288.356     8.186E-22
  54288.425     8.021E-22
  54288.493     6.734E-22
  54288.562     5.717E-22
  54288.630     2.724E-22
  54288.699    -3.592E-23
  54288.767    -1.151E-22
  54288.836    -1.936E-23
  54288.904     3.159E-22
  54288.973     4.364E-22
  54289.041     3.144E-22
  54289.110     1.698E-22
  54289.178     1.986E-22
  54289.247     1.246E-22
  54289.315     1.139E-22
  54289.384     4.299E-23
  54289.452    -5.702E-23
  54289.521    -8.789E-23
  54289.589    -8.434E-23
  54289.658    -1.103E-22
  54289.726    -5.107E-23
  54289.795     9.371E-23
  54289.863    -2.779E-24
  54289.932    -2.376E-22
  54290.000    -2.633E-22
  54290.069    -7.775E-23
  54290.137    -2.451E-23
  54290.206     2.062E-23
  54290.274    -6.756E-23
  54290.343    -7.836E-23
  54290.411     2.532E-23
  54290.480     2.063E-22
  54290.548     4.185E-22
  54290.617     4.195E-22
  54290.685     4.059E-22
  54290.754     3.823E-22
  54290.822     2.552E-22
  54290.891     4.005E-23
  54290.959    -1.283E-22
  54291.028    -1.362E-22
  54291.096    -6.388E-23
  54291.165     3.458E-23
  54291.233     2.573E-22
  54291.302     3.795E-22
  54291.370     3.842E-22
  54291.439     4.035E-22
  54291.507     4.278E-22
  54291.576     5.746E-22
  54291.644     6.992E-22
  54291.713     5.606E-22
  54291.782     2.362E-22
  54291.850    -7.512E-23
  54291.919    -2.389E-22
  54291.987    -2.652E-22
  54292.056    -7.690E-23
  54292.124     1.216E-22
  54292.193     2.170E-22
  54292.261     1.020E-22
  54292.330     1.208E-22
  54292.398     2.753E-23
  54292.467    -3.973E-23
  54292.535    -1.885E-22
  54292.604    -3.370E-22
  54292.672    -2.625E-22
  54292.741    -7.561E-23
  54292.809     9.383E-23
  54292.878     3.804E-22
  54292.946     5.391E-22
  54293.015     7.740E-22
  54293.083     8.132E-22
  54293.152     7.894E-22
  54293.220     8.044E-22
  54293.289     6.174E-22
  54293.357     4.352E-22
  54293.426     2.249E-22
  54293.494    -2.887E-23
  54293.563    -1.436E-22
  54293.632    -2.791E-22
  54293.700    -3.633E-22
  54293.769    -3.637E-22
  54293.837    -4.503E-22
  54293.906    -4.636E-22
  54293.974    -2.919E-22
  54294.043    -4.190E-23
  54294.111     1.784E-22
  54294.180     4.918E-22
  54294.248     5.780E-22
  54294.317     3.169E-22
  54294.385     9.875E-23
  54294.454    -5.859E-23
  54294.522    -3.354E-22
  54294.591    -4.355E-22
  54294.659    -4.312E-22
  54294.728    -5.619E-22
  54294.796    -6.127E-22
  54294.865    -4.748E-22
  54294.933    -3.078E-22
  54295.002    -1.517E-22
  54295.071     6.833E-23
  54295.139     2.143E-22
  54295.208     2.497E-22
  54295.276     2.672E-22
  54295.345     3.778E-22
  54295.413     2.395E-22
  54295.482     2.828E-23
  54295.550    -1.319E-22
  54295.619    -4.389E-22
  54295.687    -4.090E-22
  54295.756    -1.314E-23
  54295.824     3.983E-22
  54295.893     6.331E-22
  54295.961     6.851E-22
  54296.030     5.799E-22
  54296.098     5.311E-22
  54296.167     5.257E-22
  54296.236     5.127E-22
  54296.304     4.993E-22
  54296.373     4.725E-22
  54296.441     4.342E-22
  54296.510     4.176E-22
  54296.578     2.722E-22
  54296.647     1.667E-22
  54296.715     7.225E-23
  54296.784    -4.850E-23
  54296.852    -1.970E-22
  54296.921    -6.437E-23
  54296.989     9.999E-23
  54297.058    -1.505E-22
  54297.126    -3.611E-22
  54297.195    -3.201E-22
  54297.263    -9.071E-23
  54297.332     1.014E-22
  54297.401     3.782E-22
  54297.469     4.857E-22
  54297.538     3.150E-22
  54297.606     2.448E-22
  54297.675     1.003E-22
  54297.743    -7.348E-23
  54297.812    -1.414E-22
  54297.880    -1.288E-22
  54297.949    -6.480E-23
  54298.017    -1.573E-22
  54298.086    -3.622E-22
  54298.154    -4.382E-22
  54298.223    -2.732E-22
  54298.292     4.995E-23
  54298.360     2.652E-22
  54298.429     4.143E-22
  54298.497     4.038E-22
  54298.566     9.372E-23
  54298.634     1.433E-22
  54298.703     2.755E-22
  54298.771     4.475E-22
  54298.840     6.709E-22
  54298.908     6.588E-22
  54298.977     5.445E-22
  54299.045     4.926E-22
  54299.114     4.894E-22
  54299.183     4.823E-22
  54299.251     4.522E-22
  54299.320     3.891E-22
  54299.388     3.244E-22
  54299.457     4.211E-22
  54299.525     5.156E-22
  54299.594     6.817E-22
  54299.662     7.063E-22
  54299.731     6.794E-22
  54299.799     7.646E-22
  54299.868     5.995E-22
  54299.936     3.116E-22
  54300.005     8.697E-23
  54300.074    -8.637E-23
  54300.142    -9.393E-23
  54300.211     3.935E-23
  54300.279     2.545E-22
  54300.348     5.225E-22
  54300.416     6.994E-22
  54300.485     8.074E-22
  54300.553     8.255E-22
  54300.622     7.194E-22
  54300.690     6.247E-22
  54300.759     4.481E-22
  54300.828     4.178E-22
  54300.896     5.180E-22
  54300.965     5.995E-22
  54301.033     6.453E-22
  54301.102     5.090E-22
  54301.170     5.281E-22
  54301.239     5.153E-22
  54301.307     2.545E-22
  54301.376     9.197E-24
  54301.444    -2.178E-22
  54301.513    -4.202E-22
  54301.582    -4.562E-22
  54301.650    -2.943E-22
  54301.719    -1.152E-22
  54301.787    -3.762E-24
  54301.856     8.333E-23
  54301.924     3.623E-22
  54301.993     5.450E-22
  54302.061     5.388E-22
  54302.130     4.545E-22
  54302.198     2.348E-22
  54302.267     1.481E-22
  54302.336     9.218E-23
  54302.404     3.592E-23
  54302.473     5.893E-23
  54302.541     1.563E-22
  54302.610     1.682E-22
  54302.678     1.769E-23
  54302.747     1.121E-22
  54302.815     2.745E-22
  54302.884     3.220E-22
  54302.953     3.459E-22
  54303.021     2.013E-22
  54303.090     1.566E-22
  54303.158     1.337E-22
  54303.227     1.792E-22
  54303.295     1.512E-23
  54303.364    -1.673E-22
  54303.432    -5.008E-22
  54303.501    -7.951E-22
  54303.569    -8.039E-22
  54303.638    -6.717E-22
  54303.707    -2.829E-22
  54303.775     1.523E-22
  54303.844     4.805E-22
  54303.912     7.232E-22
  54303.981     7.802E-22
  54304.049     5.896E-22
  54304.118     3.428E-22
  54304.186     3.118E-22
  54304.255     2.965E-22
  54304.324     4.566E-22
  54304.392     5.599E-22
  54304.461     3.718E-22
  54304.529     3.111E-22
  54304.598     3.922E-22
  54304.666     4.236E-22
  54304.735     5.006E-22
  54304.803     5.822E-22
  54304.872     6.019E-22
  54304.941     3.628E-22
  54305.009     2.125E-22
  54305.078     6.740E-24
  54305.146    -1.405E-22
  54305.215    -1.493E-22
  54305.283     9.850E-24
  54305.352     2.080E-22
  54305.421     5.345E-22
  54305.489     6.154E-22
  54305.558     7.537E-22
  54305.626     1.014E-21
  54305.695     1.190E-21
  54305.763     1.201E-21
  54305.832     1.010E-21
  54305.900     8.213E-22
  54305.969     8.658E-22
  54306.038     1.027E-21
  54306.106     1.009E-21
  54306.175     8.099E-22
  54306.243     7.744E-22
  54306.312     8.615E-22
  54306.380     1.006E-21
  54306.449     1.245E-21
  54306.517     1.535E-21
  54306.586     1.738E-21
  54306.655     1.828E-21
  54306.723     1.677E-21
  54306.792     1.453E-21
  54306.860     1.440E-21
  54306.929     1.580E-21
  54306.997     1.562E-21
  54307.066     1.476E-21
  54307.135     1.318E-21
  54307.203     1.260E-21
  54307.272     1.223E-21
  54307.340     1.262E-21
  54307.409     1.609E-21
  54307.477     2.077E-21
  54307.546     2.311E-21
  54307.615     2.409E-21
  54307.683     2.511E-21
  54307.752     2.958E-21
  54307.820     3.336E-21
  54307.889     3.872E-21
  54307.957     4.369E-21
  54308.026     4.735E-21
  54308.094     5.151E-21
  54308.163     5.562E-21
  54308.232     5.843E-21
  54308.300     6.215E-21
  54308.369     7.023E-21
  54308.437     8.198E-21
  54308.506     9.608E-21
  54308.574     1.101E-20
  54308.643     1.252E-20
  54308.712     1.397E-20
  54308.780     1.533E-20
  54308.849     1.637E-20
  54308.917     1.728E-20
  54308.986     1.775E-20
  54309.054     1.798E-20
  54309.123     1.788E-20
  54309.192     1.736E-20
  54309.260     1.681E-20
  54309.329     1.626E-20
  54309.397     1.577E-20
  54309.466     1.511E-20
  54309.534     1.406E-20
  54309.603     1.309E-20
  54309.672     1.214E-20
  54309.740     1.167E-20
  54309.809     1.122E-20
  54309.877     1.045E-20
  54309.946     9.660E-21
  54310.014     8.762E-21
  54310.083     7.779E-21
  54310.152     6.866E-21
  54310.220     6.270E-21
  54310.289     5.769E-21
  54310.357     5.378E-21
  54310.426     5.059E-21
  54310.495     4.929E-21
  54310.563     4.749E-21
  54310.632     4.543E-21
  54310.700     4.368E-21
  54310.769     4.166E-21
  54310.837     4.087E-21
  54310.906     4.190E-21
  54310.975     4.233E-21
  54311.043     4.198E-21
  54311.112     4.042E-21
  54311.180     3.721E-21
  54311.249     3.449E-21
  54311.317     3.531E-21
  54311.386     3.620E-21
  54311.455     3.598E-21
  54311.523     3.525E-21
  54311.592     3.523E-21
  54311.660     3.586E-21
  54311.729     3.925E-21
  54311.797     4.178E-21
  54311.866     4.231E-21
  54311.935     4.339E-21
  54312.003     4.413E-21
  54312.072     4.593E-21
  54312.140     4.880E-21
  54312.209     5.244E-21
  54312.278     5.406E-21
  54312.346     5.629E-21
  54312.415     6.113E-21
  54312.483     6.601E-21
  54312.552     7.136E-21
  54312.620     7.547E-21
  54312.689     7.988E-21
  54312.758     8.617E-21
  54312.826     9.654E-21
  54312.895     1.104E-20
  54312.963     1.260E-20
  54313.032     1.416E-20
  54313.101     1.569E-20
  54313.169     1.733E-20
  54313.238     1.923E-20
  54313.306     2.158E-20
  54313.375     2.263E-20
  54313.443     2.543E-20
  54313.512     2.847E-20
  54313.581     3.191E-20
  54313.649     3.498E-20
  54313.718     3.758E-20
  54313.786     3.989E-20
  54313.855     4.198E-20
  54313.924     4.427E-20
  54313.992     4.583E-20
  54314.061     4.657E-20
  54314.129     4.610E-20
  54314.198     4.466E-20
  54314.267     4.282E-20
  54314.335     3.884E-20
  54314.404     3.663E-20
  54314.472     3.437E-20
  54314.541     3.198E-20
  54314.609     2.928E-20
  54314.678     2.655E-20
  54314.747     2.416E-20
  54314.815     2.188E-20
  54314.884     1.884E-20
  54314.952     1.714E-20
  54315.021     1.560E-20
  54315.090     1.391E-20
  54315.158     1.258E-20
  54315.227     1.134E-20
  54315.295     1.011E-20
  54315.364     9.078E-21
  54315.433     8.120E-21
  54315.501     7.394E-21
  54315.570     6.912E-21
  54315.638     6.585E-21
  54315.707     6.316E-21
  54315.775     5.989E-21
  54315.844     5.592E-21
  54315.913     5.199E-21
  54315.981     4.876E-21
  54316.050     4.586E-21
  54316.118     4.312E-21
  54316.187     4.070E-21
  54316.256     3.707E-21
  54316.324     3.501E-21
  54316.393     3.232E-21
  54316.461     3.020E-21
  54316.530     2.844E-21
  54316.599     2.668E-21
  54316.667     2.609E-21
  54316.736     2.614E-21
  54316.804     2.630E-21
  54316.873     2.538E-21
  54316.942     2.421E-21
  54317.010     2.193E-21
  54317.079     1.932E-21
  54317.147     1.977E-21
  54317.216     1.914E-21
  54317.285     1.873E-21
  54317.353     1.690E-21
  54317.422     1.556E-21
  54317.490     1.318E-21
  54317.559     1.028E-21
  54317.628     9.337E-22
  54317.696     7.872E-22
  54317.765     7.831E-22
  54317.833     7.686E-22
  54317.902     7.337E-22
  54317.971     8.957E-22
  54318.039     1.082E-21
  54318.108     1.300E-21
  54318.176     1.388E-21
  54318.245     1.308E-21
  54318.314     1.139E-21
  54318.382     1.323E-21
  54318.451     1.652E-21
  54318.519     1.721E-21
  54318.588     1.737E-21
  54318.657     1.444E-21
  54318.725     1.218E-21
  54318.794     1.045E-21
  54318.862     7.306E-22
  54318.931     5.095E-22
  54319.000     3.937E-22
  54319.068     4.390E-22
  54319.137     2.891E-22
  54319.205     2.480E-22
  54319.274     1.548E-22
  54319.343     1.116E-22
  54319.411     2.022E-22
  54319.480     5.122E-22
  54319.548     7.758E-22
  54319.617     9.152E-22
  54319.686     8.305E-22
  54319.754     7.477E-22
  54319.823     6.414E-22
  54319.891     6.665E-22
  54319.960     7.785E-22
  54320.029     8.155E-22
  54320.097     9.456E-22
  54320.166     7.547E-22
  54320.234     4.858E-22
  54320.303     3.440E-22
  54320.372     3.498E-22
  54320.440     3.551E-22
  54320.509     3.073E-22
  54320.577     3.245E-22
  54320.646     4.033E-22
  54320.715     5.618E-22
  54320.783     6.958E-22
  54320.852     5.268E-22
  54320.921     5.929E-22
  54320.989     6.797E-22
  54321.058     6.498E-22
  54321.126     6.127E-22
  54321.195     5.914E-22
  54321.264     5.565E-22
  54321.332     3.267E-22
  54321.401     1.938E-22
  54321.469     2.190E-22
  54321.538     2.696E-22
  54321.607     2.433E-22
  54321.675     3.031E-22
  54321.744     1.899E-22
  54321.812     9.804E-23
  54321.881     1.846E-22
  54321.950     2.102E-22
  54322.018     2.132E-22
  54322.087     9.075E-23
  54322.156    -2.706E-23
  54322.224    -3.231E-24
  54322.293     2.169E-22
  54322.361     2.788E-22
  54322.430     3.746E-22
  54322.499     5.076E-22
  54322.567     5.166E-22
  54322.636     6.319E-22
  54322.704     6.574E-22
  54322.773     4.822E-22
  54322.842     3.848E-22
  54322.910     3.453E-22
  54322.979     3.340E-22
  54323.048     3.939E-22
  54323.116     5.431E-22
  54323.185     7.223E-22
  54323.253     7.938E-22
  54323.322     8.390E-22
  54323.391     9.360E-22
  54323.459     8.533E-22
  54323.528     7.693E-22
  54323.596     6.920E-22
  54323.665     6.585E-22
  54323.734     6.724E-22
  54323.802     7.301E-22
  54323.871     8.273E-22
  54323.940     8.110E-22
  54324.008     4.600E-22
  54324.077     2.787E-22
  54324.145     2.499E-22
  54324.214     9.638E-23
  54324.283    -6.132E-23
  54324.351    -7.910E-23
  54324.420     6.214E-23
  54324.489     2.397E-22
  54324.557     4.061E-22
  54324.626     5.336E-22
  54324.694     4.564E-22
  54324.763     1.716E-22
  54324.832     1.457E-22
  54324.900     2.231E-22
  54324.969     3.467E-22
  54325.037     4.328E-22
  54325.106     4.221E-22
  54325.175     3.077E-22
  54325.243     4.158E-22
  54325.312     2.877E-22
  54325.381     1.086E-22
  54325.449     1.104E-22
  54325.518     6.398E-23
  54325.586    -9.709E-23
  54325.655    -1.799E-22
  54325.724    -1.986E-22
  54325.792    -1.034E-22
  54325.861     7.234E-23
  54325.930     2.025E-22
  54325.998     2.641E-22
  54326.067     4.272E-22
  54326.135     5.114E-22
  54326.204     3.702E-22
  54326.273     3.819E-22
  54326.341     5.631E-22
  54326.410     6.344E-22
  54326.479     4.910E-22
  54326.547     3.548E-22
  54326.616     3.472E-22
  54326.684     5.847E-22
  54326.753     5.754E-22
  54326.822     3.259E-22
  54326.890     2.541E-22
  54326.959     1.753E-22
  54327.028     2.428E-22
  54327.096     5.034E-22
  54327.165     6.858E-22
  54327.233     8.620E-22
  54327.302     8.444E-22
  54327.371     7.309E-22
  54327.439     6.196E-22
  54327.508     5.498E-22
  54327.577     4.683E-22
  54327.645     6.443E-22
  54327.714     8.750E-22
  54327.783     1.094E-21
  54327.851     1.115E-21
  54327.920     8.324E-22
  54327.988     4.829E-22
  54328.057     2.162E-22
  54328.126     1.216E-22
  54328.194     1.046E-22
  54328.263    -3.499E-24
  54328.332    -1.402E-22
  54328.400    -1.544E-22
  54328.469    -6.561E-23
  54328.537     2.069E-22
  54328.606     3.354E-22
  54328.675     3.032E-22
  54328.743     2.285E-22
  54328.812     1.657E-22
  54328.881     1.928E-22
  54328.949     2.059E-22
  54329.018     2.207E-22
  54329.087     3.995E-22
  54329.155     5.268E-22
  54329.224     5.366E-22
  54329.292     4.446E-22
  54329.361     4.496E-22
  54329.430     4.117E-22
  54329.498     3.695E-22
  54329.567     3.109E-22
  54329.636     4.421E-22
  54329.704     6.620E-22
  54329.773     7.227E-22
  54329.842     6.920E-22
  54329.910     4.168E-22
  54329.979     3.296E-22
  54330.047     2.559E-22
  54330.116     1.595E-22
  54330.185     3.733E-22
  54330.253     7.006E-22
  54330.322     8.420E-22
  54330.391     8.893E-22
  54330.459     6.496E-22
  54330.528     4.195E-22
  54330.597     2.255E-22
  54330.665     8.926E-23
  54330.734    -3.178E-23
  54330.803    -5.434E-23
  54330.871     1.381E-23
  54330.940    -1.277E-23
  54331.008     1.258E-22
  54331.077     5.129E-22
  54331.146     7.155E-22
  54331.214     7.243E-22
  54331.283     6.197E-22
  54331.352     5.488E-22
  54331.420     5.970E-22
  54331.489     8.272E-22
  54331.558     1.108E-21
  54331.626     1.237E-21
  54331.695     1.418E-21
  54331.763     1.359E-21
  54331.832     1.081E-21
  54331.901     6.126E-22
  54331.969     9.875E-23
  54332.038    -1.985E-22
  54332.107    -3.054E-22
  54332.175    -2.242E-22
  54332.244    -5.431E-23
  54332.313     1.435E-22
  54332.381     4.382E-22
  54332.450     7.312E-22
  54332.519     8.172E-22
  54332.587     8.015E-22
  54332.656     7.192E-22
  54332.725     7.171E-22
  54332.793     7.519E-22
  54332.862     8.332E-22
  54332.930     8.303E-22
  54332.999     7.463E-22
  54333.068     7.924E-22
  54333.136     8.317E-22
  54333.205     7.947E-22
  54333.274     6.613E-22
  54333.342     3.614E-22
  54333.411     8.359E-23
  54333.480    -3.897E-23
  54333.548    -1.724E-23
  54333.617     2.334E-22
  54333.686     5.719E-22
  54333.754     8.015E-22
  54333.823     8.774E-22
  54333.892     9.132E-22
  54333.960     7.330E-22
  54334.029     4.065E-22
  54334.098     7.156E-23
  54334.166     4.362E-23
  54334.235     2.915E-22
  54334.303     6.619E-22
  54334.372     8.633E-22
  54334.441     9.665E-22
  54334.509     1.102E-21
  54334.578     1.063E-21
  54334.647     8.466E-22
  54334.715     7.831E-22
  54334.784     9.315E-22
  54334.853     1.209E-21
  54334.921     1.404E-21
  54334.990     1.622E-21
  54335.059     1.720E-21
  54335.127     1.693E-21
  54335.196     1.629E-21
  54335.265     1.545E-21
  54335.333     1.604E-21
  54335.402     1.610E-21
  54335.471     1.494E-21
  54335.539     1.441E-21
  54335.608     1.305E-21
  54335.677     1.252E-21
  54335.745     1.120E-21
  54335.814     1.002E-21
  54335.883     9.281E-22
  54335.951     8.126E-22
  54336.020     8.342E-22
  54336.088     9.828E-22
  54336.157     1.296E-21
  54336.226     1.426E-21
  54336.294     1.525E-21
  54336.363     1.538E-21
  54336.432     1.247E-21
  54336.500     1.130E-21
  54336.569     1.204E-21
  54336.638     1.361E-21
  54336.706     1.413E-21
  54336.775     1.430E-21
  54336.844     1.391E-21
  54336.912     1.263E-21
  54336.981     1.192E-21
  54337.050     1.294E-21
  54337.118     1.283E-21
  54337.187     1.292E-21
  54337.256     1.350E-21
  54337.324     1.413E-21
  54337.393     1.475E-21
  54337.462     1.473E-21
  54337.530     1.359E-21
  54337.599     1.435E-21
  54337.668     1.430E-21
  54337.736     1.624E-21
  54337.805     2.045E-21
  54337.874     2.405E-21
  54337.942     2.531E-21
  54338.011     2.414E-21
  54338.080     2.278E-21
  54338.148     2.277E-21
  54338.217     2.481E-21
  54338.286     2.734E-21
  54338.354     3.099E-21
  54338.423     3.200E-21
  54338.492     3.132E-21
  54338.560     2.880E-21
  54338.629     2.811E-21
  54338.698     2.924E-21
  54338.766     3.126E-21
  54338.835     3.390E-21
  54338.904     3.685E-21
  54338.972     3.855E-21
  54339.041     3.894E-21
  54339.110     3.826E-21
  54339.178     3.881E-21
  54339.247     4.127E-21
  54339.316     4.408E-21
  54339.384     4.775E-21
  54339.453     5.243E-21
  54339.522     5.632E-21
  54339.590     5.972E-21
  54339.659     6.482E-21
  54339.728     7.094E-21
  54339.796     7.660E-21
  54339.865     8.404E-21
  54339.934     8.918E-21
  54340.002     9.518E-21
  54340.071     1.060E-20
  54340.140     1.201E-20
  54340.208     1.331E-20
  54340.277     1.483E-20
  54340.346     1.637E-20
  54340.414     1.791E-20
  54340.483     1.972E-20
  54340.552     2.268E-20
  54340.620     2.537E-20
  54340.689     2.857E-20
  54340.758     3.240E-20
  54340.826     3.604E-20
  54340.895     3.944E-20
  54340.964     4.227E-20
  54341.032     4.458E-20
  54341.101     4.659E-20
  54341.170     4.788E-20
  54341.238     4.830E-20
  54341.307     4.840E-20
  54341.376     4.795E-20
  54341.444     4.687E-20
  54341.513     4.539E-20
  54341.582     4.338E-20
  54341.650     4.066E-20
  54341.719     3.778E-20
  54341.788     3.492E-20
  54341.856     3.236E-20
  54341.925     3.023E-20
  54341.994     2.819E-20
  54342.063     2.606E-20
  54342.131     2.404E-20
  54342.200     2.243E-20
  54342.269     2.097E-20
  54342.337     1.966E-20
  54342.406     1.831E-20
  54342.475     1.714E-20
  54342.543     1.647E-20
  54342.612     1.586E-20
  54342.681     1.502E-20
  54342.749     1.414E-20
  54342.818     1.354E-20
  54342.887     1.319E-20
  54342.955     1.288E-20
  54343.024     1.280E-20
  54343.093     1.269E-20
  54343.161     1.252E-20
  54343.230     1.257E-20
  54343.299     1.297E-20
  54343.367     1.337E-20
  54343.436     1.367E-20
  54343.505     1.404E-20
  54343.573     1.416E-20
  54343.642     1.457E-20
  54343.711     1.526E-20
  54343.779     1.592E-20
  54343.848     1.685E-20
  54343.917     1.799E-20
  54343.986     1.916E-20
  54344.054     2.164E-20
  54344.123     2.366E-20
  54344.192     2.607E-20
  54344.260     2.876E-20
  54344.329     3.177E-20
  54344.398     3.530E-20
  54344.466     3.945E-20
  54344.535     4.461E-20
  54344.604     4.994E-20
  54344.672     5.568E-20
  54344.741     6.228E-20
  54344.810     7.373E-20
  54344.878     8.154E-20
  54344.947     8.826E-20
  54345.016     9.353E-20
  54345.084     9.685E-20
  54345.153     9.979E-20
  54345.222     1.018E-19
  54345.291     1.024E-19
  54345.359     1.021E-19
  54345.428     1.002E-19
  54345.497     9.655E-20
  54345.565     9.176E-20
  54345.634     8.659E-20
  54345.703     7.996E-20
  54345.771     7.474E-20
  54345.840     6.553E-20
  54345.909     5.994E-20
  54345.977     5.150E-20
  54346.046     4.655E-20
  54346.115     4.214E-20
  54346.183     3.679E-20
  54346.252     3.339E-20
  54346.321     3.009E-20
  54346.390     2.739E-20
  54346.458     2.529E-20
  54346.527     2.328E-20
  54346.596     2.133E-20
  54346.664     1.849E-20
  54346.733     1.689E-20
  54346.802     1.536E-20
  54346.870     1.425E-20
  54346.939     1.328E-20
  54347.008     1.246E-20
  54347.076     1.179E-20
  54347.145     1.130E-20
  54347.214     1.086E-20
  54347.283     1.023E-20
  54347.351     9.687E-21
  54347.420     9.129E-21
  54347.489     8.657E-21
  54347.557     8.254E-21
  54347.626     7.969E-21
  54347.695     7.598E-21
  54347.763     7.131E-21
  54347.832     6.772E-21
  54347.901     6.762E-21
  54347.969     6.534E-21
  54348.038     6.107E-21
  54348.107     5.603E-21
  54348.176     5.153E-21
  54348.244     4.838E-21
  54348.313     4.450E-21
  54348.382     4.159E-21
  54348.450     4.151E-21
  54348.519     4.040E-21
  54348.588     3.919E-21
  54348.656     3.540E-21
  54348.725     3.242E-21
  54348.794     3.000E-21
  54348.863     2.766E-21
  54348.931     2.795E-21
  54349.000     2.763E-21
  54349.069     2.764E-21
  54349.137     2.773E-21
  54349.206     2.757E-21
  54349.275     2.682E-21
  54349.343     2.521E-21
  54349.412     2.439E-21
  54349.481     2.461E-21
  54349.550     2.482E-21
  54349.618     2.477E-21
  54349.687     2.358E-21
  54349.756     2.240E-21
  54349.824     2.216E-21
  54349.893     2.213E-21
  54349.962     2.321E-21
  54350.030     2.171E-21
  54350.099     1.897E-21
  54350.168     1.917E-21
  54350.237     2.042E-21
  54350.305     2.011E-21
  54350.374     1.939E-21
  54350.443     1.932E-21
  54350.511     1.995E-21
  54350.580     1.754E-21
  54350.649     1.515E-21
  54350.717     1.546E-21
  54350.786     1.711E-21
  54350.855     1.826E-21
  54350.924     1.810E-21
  54350.992     1.751E-21
  54351.061     1.999E-21
  54351.130     2.008E-21
  54351.198     1.813E-21
  54351.267     1.383E-21
  54351.336     1.138E-21
  54351.405     1.335E-21
  54351.473     1.518E-21
  54351.542     1.848E-21
  54351.611     2.012E-21
  54351.679     1.924E-21
  54351.748     1.644E-21
  54351.817     1.303E-21
  54351.885     1.129E-21
  54351.954     9.767E-22
  54352.023     8.173E-22
  54352.092     9.246E-22
  54352.160     1.034E-21
  54352.229     1.151E-21
  54352.298     1.306E-21
  54352.366     1.291E-21
  54352.435     1.348E-21
  54352.504     1.499E-21
  54352.573     1.572E-21
  54352.641     1.417E-21
  54352.710     1.116E-21
  54352.779     9.516E-22
  54352.847     1.043E-21
  54352.916     1.093E-21
  54352.985     1.093E-21
  54353.054     8.625E-22
  54353.122     8.225E-22
  54353.191     8.424E-22
  54353.260     1.096E-21
  54353.328     1.265E-21
  54353.397     1.222E-21
  54353.466     9.622E-22
  54353.535     9.296E-22
  54353.603     8.123E-22
  54353.672     6.340E-22
  54353.741     6.403E-22
  54353.809     9.613E-22
  54353.878     1.178E-21
  54353.947     1.244E-21
  54354.016     1.353E-21
  54354.084     1.322E-21
  54354.153     1.310E-21
  54354.222     1.300E-21
  54354.290     1.195E-21
  54354.359     1.190E-21
  54354.428     1.374E-21
  54354.497     1.614E-21
  54354.565     1.629E-21
  54354.634     1.639E-21
  54354.703     1.715E-21
  54354.771     1.613E-21
  54354.840     1.601E-21
  54354.909     1.712E-21
  54354.978     1.870E-21
  54355.046     1.725E-21
  54355.115     1.534E-21
  54355.184     1.440E-21
  54355.252     1.588E-21
  54355.321     1.728E-21
  54355.390     1.635E-21
  54355.459     1.506E-21
  54355.527     1.336E-21
  54355.596     1.164E-21
  54355.665     1.056E-21
  54355.733     9.056E-22
  54355.802     1.075E-21
  54355.871     1.161E-21
  54355.940     1.172E-21
  54356.008     1.374E-21
  54356.077     1.490E-21
  54356.146     1.552E-21
  54356.215     1.538E-21
  54356.283     1.441E-21
  54356.352     1.461E-21
  54356.421     1.450E-21
  54356.489     1.379E-21
  54356.558     1.391E-21
  54356.627     1.525E-21
  54356.696     1.552E-21
  54356.764     1.703E-21
  54356.833     1.936E-21
  54356.902     2.027E-21
  54356.970     2.198E-21
  54357.039     2.310E-21
  54357.108     2.383E-21
  54357.177     2.271E-21
  54357.245     2.240E-21
  54357.314     2.476E-21
  54357.383     2.882E-21
  54357.452     3.108E-21
  54357.520     3.042E-21
  54357.589     2.690E-21
  54357.658     2.369E-21
  54357.726     2.161E-21
  54357.795     2.001E-21
  54357.864     1.939E-21
  54357.933     1.832E-21
  54358.001     1.754E-21
  54358.070     1.599E-21
  54358.139     1.584E-21
  54358.208     1.748E-21
  54358.276     1.867E-21
  54358.345     1.934E-21
  54358.414     1.825E-21
  54358.482     1.687E-21
  54358.551     1.637E-21
  54358.620     1.603E-21
  54358.689     1.586E-21
  54358.757     1.611E-21
  54358.826     1.572E-21
  54358.895     1.472E-21
  54358.964     1.616E-21
  54359.032     1.756E-21
  54359.101     1.674E-21
  54359.170     1.749E-21
  54359.239     2.009E-21
  54359.307     2.119E-21
  54359.376     2.063E-21
  54359.445     2.105E-21
  54359.513     2.147E-21
  54359.582     1.924E-21
  54359.651     1.860E-21
  54359.720     1.910E-21
  54359.788     1.974E-21
  54359.857     2.124E-21
  54359.926     1.928E-21
  54359.995     1.798E-21
  54360.063     1.681E-21
  54360.132     1.774E-21
  54360.201     1.871E-21
  54360.270     1.959E-21
  54360.338     2.084E-21
  54360.407     2.169E-21
  54360.476     2.178E-21
  54360.544     2.212E-21
  54360.613     2.334E-21
  54360.682     2.515E-21
  54360.751     2.678E-21
  54360.819     2.594E-21
  54360.888     2.439E-21
  54360.957     2.520E-21
  54361.026     2.350E-21
  54361.094     2.151E-21
  54361.163     2.043E-21
  54361.232     1.960E-21
  54361.301     1.843E-21
  54361.369     1.741E-21
  54361.438     1.788E-21
  54361.507     2.075E-21
  54361.576     2.299E-21
  54361.644     2.649E-21
  54361.713     2.911E-21
  54361.782     3.018E-21
  54361.850     3.035E-21
  54361.919     2.846E-21
  54361.988     2.740E-21
  54362.057     2.617E-21
  54362.125     2.623E-21
  54362.194     2.652E-21
  54362.263     2.665E-21
  54362.332     2.732E-21
  54362.400     2.728E-21
  54362.469     2.484E-21
  54362.538     2.378E-21
  54362.607     2.483E-21
  54362.675     2.543E-21
  54362.744     2.653E-21
  54362.813     2.609E-21
  54362.882     2.470E-21
  54362.950     2.351E-21
  54363.019     2.530E-21
  54363.088     2.766E-21
  54363.157     3.083E-21
  54363.225     3.286E-21
  54363.294     3.299E-21
  54363.363     3.254E-21
  54363.432     3.204E-21
  54363.500     3.275E-21
  54363.569     3.635E-21
  54363.638     4.028E-21
  54363.707     4.225E-21
  54363.775     4.288E-21
  54363.844     4.249E-21
  54363.913     4.170E-21
  54363.982     3.971E-21
  54364.050     3.888E-21
  54364.119     3.925E-21
  54364.188     4.166E-21
  54364.256     4.488E-21
  54364.325     4.582E-21
  54364.394     4.797E-21
  54364.463     5.050E-21
  54364.531     5.184E-21
  54364.600     5.255E-21
  54364.669     5.394E-21
  54364.738     5.740E-21
  54364.806     6.156E-21
  54364.875     6.584E-21
  54364.944     6.692E-21
  54365.013     6.738E-21
  54365.081     7.033E-21
  54365.150     7.088E-21
  54365.219     7.143E-21
  54365.288     7.500E-21
  54365.356     7.872E-21
  54365.425     8.395E-21
  54365.494     9.008E-21
  54365.563     9.285E-21
  54365.631     9.533E-21
  54365.700     1.006E-20
  54365.769     1.066E-20
  54365.838     1.128E-20
  54365.906     1.219E-20
  54365.975     1.307E-20
  54366.044     1.404E-20
  54366.113     1.489E-20
  54366.182     1.558E-20
  54366.250     1.656E-20
  54366.319     1.780E-20
  54366.388     1.914E-20
  54366.457     2.065E-20
  54366.525     2.262E-20
  54366.594     2.491E-20
  54366.663     2.711E-20
  54366.732     2.899E-20
  54366.800     3.127E-20
  54366.869     3.421E-20
  54366.938     3.802E-20
  54367.007     4.317E-20
  54367.075     4.879E-20
  54367.144     5.500E-20
  54367.213     6.138E-20
  54367.282     6.702E-20
  54367.350     7.753E-20
  54367.419     8.645E-20
  54367.488     9.413E-20
  54367.557     1.007E-19
  54367.625     1.062E-19
  54367.694     1.099E-19
  54367.763     1.119E-19
  54367.832     1.133E-19
  54367.900     1.140E-19
  54367.969     1.122E-19
  54368.038     1.090E-19
  54368.107     1.051E-19
  54368.175     9.989E-20
  54368.244     9.400E-20
  54368.313     8.801E-20
  54368.382     8.181E-20
  54368.450     7.780E-20
  54368.519     7.317E-20
  54368.588     6.651E-20
  54368.657     6.235E-20
  54368.726     5.818E-20
  54368.794     5.180E-20
  54368.863     4.847E-20
  54368.932     4.580E-20
  54369.001     4.355E-20
  54369.069     4.227E-20
  54369.138     4.121E-20
  54369.207     4.021E-20
  54369.276     3.910E-20
  54369.344     3.843E-20
  54369.413     3.808E-20
  54369.482     3.841E-20
  54369.551     3.902E-20
  54369.619     3.997E-20
  54369.688     4.175E-20
  54369.757     4.434E-20
  54369.826     4.728E-20
  54369.895     5.112E-20
  54369.963     5.527E-20
  54370.032     5.925E-20
  54370.101     6.350E-20
  54370.170     7.152E-20
  54370.238     7.870E-20
  54370.307     8.734E-20
  54370.376     9.591E-20
  54370.445     1.059E-19
  54370.513     1.179E-19
  54370.582     1.298E-19
  54370.651     1.413E-19
  54370.720     1.573E-19
  54370.788     1.661E-19
  54370.857     1.731E-19
  54370.926     1.783E-19
  54370.995     1.806E-19
  54371.064     1.805E-19
  54371.132     1.784E-19
  54371.201     1.745E-19
  54371.270     1.670E-19
  54371.339     1.569E-19
  54371.407     1.419E-19
  54371.476     1.312E-19
  54371.545     1.207E-19
  54371.614     1.105E-19
  54371.683     1.010E-19
  54371.751     9.160E-20
  54371.820     8.265E-20
  54371.889     7.247E-20
  54371.958     6.530E-20
  54372.026     5.884E-20
  54372.095     4.993E-20
  54372.164     4.532E-20
  54372.233     4.149E-20
  54372.301     3.835E-20
  54372.370     3.520E-20
  54372.439     3.215E-20
  54372.508     2.975E-20
  54372.577     2.742E-20
  54372.645     2.541E-20
  54372.714     2.408E-20
  54372.783     2.311E-20
  54372.852     2.191E-20
  54372.920     2.044E-20
  54372.989     1.789E-20
  54373.058     1.703E-20
  54373.127     1.620E-20
  54373.196     1.511E-20
  54373.264     1.405E-20
  54373.333     1.334E-20
  54373.402     1.284E-20
  54373.471     1.248E-20
  54373.539     1.197E-20
  54373.608     1.128E-20
  54373.677     1.033E-20
  54373.746     9.279E-21
  54373.815     8.613E-21
  54373.883     8.610E-21
  54373.952     8.622E-21
  54374.021     8.737E-21
  54374.090     8.778E-21
  54374.158     8.629E-21
  54374.227     8.303E-21
  54374.296     8.088E-21
  54374.365     8.079E-21
  54374.434     7.902E-21
  54374.502     7.653E-21
  54374.571     7.260E-21
  54374.640     7.104E-21
  54374.709     6.919E-21
  54374.777     6.751E-21
  54374.846     6.832E-21
  54374.915     6.891E-21
  54374.984     6.812E-21
  54375.053     6.596E-21
  54375.121     6.359E-21
  54375.190     5.975E-21
  54375.259     5.619E-21
  54375.328     5.273E-21
  54375.396     5.019E-21
  54375.465     5.070E-21
  54375.534     5.141E-21
  54375.603     5.165E-21
  54375.672     5.052E-21
  54375.740     4.598E-21
  54375.809     4.123E-21
  54375.878     3.836E-21
  54375.947     3.792E-21
  54376.016     3.938E-21
  54376.084     4.149E-21
  54376.153     4.111E-21
  54376.222     4.122E-21
  54376.291     3.963E-21
  54376.359     3.659E-21
  54376.428     3.673E-21
  54376.497     3.925E-21
  54376.566     3.996E-21
  54376.635     3.897E-21
  54376.703     3.897E-21
  54376.772     3.768E-21
  54376.841     3.859E-21
  54376.910     3.842E-21
  54376.979     3.853E-21
  54377.047     3.912E-21
  54377.116     3.944E-21
  54377.185     3.823E-21
  54377.254     3.672E-21
  54377.322     3.568E-21
  54377.391     3.591E-21
  54377.460     3.839E-21
  54377.529     3.832E-21
  54377.598     3.884E-21
  54377.666     3.974E-21
  54377.735     4.094E-21
  54377.804     4.211E-21
  54377.873     4.244E-21
  54377.942     4.218E-21
  54378.010     4.060E-21
  54378.079     3.745E-21
  54378.148     3.394E-21
  54378.217     3.113E-21
  54378.286     3.009E-21
  54378.354     3.073E-21
  54378.423     3.260E-21
  54378.492     3.597E-21
  54378.561     3.763E-21
  54378.630     3.676E-21
  54378.698     3.555E-21
  54378.767     3.290E-21
  54378.836     3.141E-21
  54378.905     3.154E-21
  54378.973     3.408E-21
  54379.042     3.696E-21
  54379.111     3.863E-21
  54379.180     3.754E-21
  54379.249     3.681E-21
  54379.317     3.760E-21
  54379.386     4.092E-21
  54379.455     4.298E-21
  54379.524     4.342E-21
  54379.593     4.381E-21
  54379.661     4.280E-21
  54379.730     4.033E-21
  54379.799     3.809E-21
  54379.868     3.510E-21
  54379.937     3.326E-21
  54380.005     3.360E-21
  54380.074     3.544E-21
  54380.143     3.975E-21
  54380.212     4.283E-21
  54380.281     4.254E-21
  54380.349     3.946E-21
  54380.418     3.421E-21
  54380.487     2.968E-21
  54380.556     2.963E-21
  54380.625     3.191E-21
  54380.693     3.334E-21
  54380.762     3.511E-21
  54380.831     3.424E-21
  54380.900     3.388E-21
  54380.969     3.607E-21
  54381.037     3.639E-21
  54381.106     3.598E-21
  54381.175     3.702E-21
  54381.244     3.823E-21
  54381.313     3.832E-21
  54381.381     3.976E-21
  54381.450     4.101E-21
  54381.519     4.185E-21
  54381.588     4.220E-21
  54381.657     4.131E-21
  54381.725     4.153E-21
  54381.794     4.135E-21
  54381.863     4.250E-21
  54381.932     4.448E-21
  54382.001     4.638E-21
  54382.069     4.674E-21
  54382.138     4.787E-21
  54382.207     4.759E-21
  54382.276     4.751E-21
  54382.345     4.812E-21
  54382.414     4.925E-21
  54382.482     5.246E-21
  54382.551     5.442E-21
  54382.620     5.628E-21
  54382.689     5.811E-21
  54382.758     5.930E-21
  54382.826     5.976E-21
  54382.895     5.884E-21
  54382.964     6.023E-21
  54383.033     6.344E-21
  54383.102     6.405E-21
  54383.170     6.445E-21
  54383.239     6.215E-21
  54383.308     5.989E-21
  54383.377     5.967E-21
  54383.446     6.053E-21
  54383.514     5.939E-21
  54383.583     5.814E-21
  54383.652     5.563E-21
  54383.721     5.456E-21
  54383.790     5.673E-21
  54383.858     5.794E-21
  54383.927     5.875E-21
  54383.996     6.009E-21
  54384.065     6.076E-21
  54384.134     5.979E-21
  54384.203     6.001E-21
  54384.271     6.163E-21
  54384.340     6.342E-21
  54384.409     6.433E-21
  54384.478     6.389E-21
  54384.547     6.218E-21
  54384.615     5.963E-21
  54384.684     6.045E-21
  54384.753     6.508E-21
  54384.822     7.068E-21
  54384.891     7.369E-21
  54384.959     7.420E-21
  54385.028     7.544E-21
  54385.097     8.030E-21
  54385.166     8.483E-21
  54385.235     8.973E-21
  54385.304     9.598E-21
  54385.372     1.006E-20
  54385.441     1.063E-20
  54385.510     1.093E-20
  54385.579     1.145E-20
  54385.648     1.170E-20
  54385.716     1.180E-20
  54385.785     1.187E-20
  54385.854     1.204E-20
  54385.923     1.232E-20
  54385.992     1.271E-20
  54386.061     1.333E-20
  54386.129     1.399E-20
  54386.198     1.459E-20
  54386.267     1.530E-20
  54386.336     1.614E-20
  54386.405     1.689E-20
  54386.473     1.774E-20
  54386.542     1.886E-20
  54386.611     2.007E-20
  54386.680     2.114E-20
  54386.749     2.193E-20
  54386.818     2.297E-20
  54386.886     2.403E-20
  54386.955     2.511E-20
  54387.024     2.671E-20
  54387.093     2.874E-20
  54387.162     3.097E-20
  54387.230     3.347E-20
  54387.299     3.614E-20
  54387.368     3.863E-20
  54387.437     4.245E-20
  54387.506     4.563E-20
  54387.575     4.947E-20
  54387.643     5.370E-20
  54387.712     5.859E-20
  54387.781     6.438E-20
  54387.850     6.962E-20
  54387.919     7.907E-20
  54387.987     8.830E-20
  54388.056     9.812E-20
  54388.125     1.089E-19
  54388.194     1.207E-19
  54388.263     1.325E-19
  54388.332     1.483E-19
  54388.400     1.623E-19
  54388.469     1.765E-19
  54388.538     1.906E-19
  54388.607     2.015E-19
  54388.676     2.094E-19
  54388.745     2.140E-19
  54388.813     2.160E-19
  54388.882     2.146E-19
  54388.951     2.102E-19
  54389.020     2.015E-19
  54389.089     1.934E-19
  54389.158     1.850E-19
  54389.226     1.754E-19
  54389.295     1.647E-19
  54389.364     1.544E-19
  54389.433     1.401E-19
  54389.502     1.304E-19
  54389.570     1.214E-19
  54389.639     1.144E-19
  54389.708     1.092E-19
  54389.777     1.048E-19
  54389.846     1.012E-19
  54389.915     9.946E-20
  54389.983     9.852E-20
  54390.052     9.927E-20
  54390.121     1.011E-19
  54390.190     1.035E-19
  54390.259     1.071E-19
  54390.328     1.127E-19
  54390.396     1.200E-19
  54390.465     1.283E-19
  54390.534     1.381E-19
  54390.603     1.512E-19
  54390.672     1.623E-19
  54390.741     1.749E-19
  54390.809     1.894E-19
  54390.878     2.039E-19
  54390.947     2.169E-19
  54391.016     2.283E-19
  54391.085     2.371E-19
  54391.154     2.419E-19
  54391.222     2.414E-19
  54391.291     2.382E-19
  54391.360     2.325E-19
  54391.429     2.247E-19
  54391.498     2.141E-19
  54391.567     2.015E-19
  54391.635     1.876E-19
  54391.704     1.746E-19
  54391.773     1.622E-19
  54391.842     1.489E-19
  54391.911     1.327E-19
  54391.980     1.207E-19
  54392.048     1.095E-19
  54392.117     9.959E-20
  54392.186     9.074E-20
  54392.255     8.255E-20
  54392.324     7.032E-20
  54392.393     6.361E-20
  54392.461     5.541E-20
  54392.530     5.120E-20
  54392.599     4.771E-20
  54392.668     4.475E-20
  54392.737     4.305E-20
  54392.806     4.088E-20
  54392.875     3.896E-20
  54392.943     3.701E-20
  54393.012     3.516E-20
  54393.081     3.311E-20
  54393.150     3.142E-20
  54393.219     3.011E-20
  54393.288     2.870E-20
  54393.356     2.712E-20
  54393.425     2.548E-20
  54393.494     2.388E-20
  54393.563     2.235E-20
  54393.632     2.106E-20
  54393.701     2.016E-20
  54393.769     1.833E-20
  54393.838     1.736E-20
  54393.907     1.675E-20
  54393.976     1.622E-20
  54394.045     1.548E-20
  54394.114     1.476E-20
  54394.182     1.429E-20
  54394.251     1.385E-20
  54394.320     1.345E-20
  54394.389     1.304E-20
  54394.458     1.260E-20
  54394.527     1.213E-20
  54394.596     1.147E-20
  54394.664     1.098E-20
  54394.733     1.074E-20
  54394.802     1.049E-20
  54394.871     1.018E-20
  54394.940     9.722E-21
  54395.009     9.401E-21
  54395.077     9.011E-21
  54395.146     8.817E-21
  54395.215     8.798E-21
  54395.284     8.771E-21
  54395.353     8.747E-21
  54395.422     8.774E-21
  54395.491     8.935E-21
  54395.559     9.055E-21
  54395.628     8.916E-21
  54395.697     8.675E-21
  54395.766     8.445E-21
  54395.835     8.094E-21
  54395.904     8.145E-21
  54395.972     8.186E-21
  54396.041     8.097E-21
  54396.110     8.016E-21
  54396.179     7.946E-21
  54396.248     7.946E-21
  54396.317     8.005E-21
  54396.386     7.955E-21
  54396.454     7.773E-21
  54396.523     7.573E-21
  54396.592     7.539E-21
  54396.661     7.142E-21
  54396.730     6.929E-21
  54396.799     6.967E-21
  54396.868     7.022E-21
  54396.936     7.033E-21
  54397.005     6.937E-21
  54397.074     6.961E-21
  54397.143     6.963E-21
  54397.212     6.873E-21
  54397.281     6.712E-21
  54397.350     6.405E-21
  54397.418     6.186E-21
  54397.487     6.190E-21
  54397.556     6.207E-21
  54397.625     6.299E-21
  54397.694     6.385E-21
  54397.763     6.417E-21
  54397.831     6.229E-21
  54397.900     6.274E-21
  54397.969     6.280E-21
  54398.038     6.415E-21
  54398.107     6.706E-21
  54398.176     7.054E-21
  54398.245     7.336E-21
  54398.313     7.412E-21
  54398.382     7.447E-21
  54398.451     7.519E-21
  54398.520     7.468E-21
  54398.589     7.507E-21
  54398.658     7.495E-21
  54398.727     7.426E-21
  54398.795     7.477E-21
  54398.864     7.633E-21
  54398.933     7.861E-21
  54399.002     8.165E-21
  54399.071     8.306E-21
  54399.140     8.448E-21
  54399.209     8.755E-21
  54399.277     9.238E-21
  54399.346     9.434E-21
  54399.415     9.611E-21
  54399.484     9.760E-21
  54399.553     9.611E-21
  54399.622     9.600E-21
  54399.691     9.773E-21
  54399.760     9.788E-21
  54399.828     9.930E-21
  54399.897     1.007E-20
  54399.966     1.039E-20
  54400.035     1.064E-20
  54400.104     1.101E-20
  54400.173     1.118E-20
  54400.242     1.142E-20
  54400.310     1.161E-20
  54400.379     1.161E-20
  54400.448     1.174E-20
  54400.517     1.203E-20
  54400.586     1.242E-20
  54400.655     1.265E-20
  54400.724     1.297E-20
  54400.792     1.328E-20
  54400.861     1.368E-20
  54400.930     1.445E-20
  54400.999     1.516E-20
  54401.068     1.584E-20
  54401.137     1.654E-20
  54401.206     1.714E-20
  54401.275     1.803E-20
  54401.343     1.925E-20
  54401.412     2.029E-20
  54401.481     2.121E-20
  54401.550     2.236E-20
  54401.619     2.367E-20
  54401.688     2.480E-20
  54401.757     2.593E-20
  54401.825     2.712E-20
  54401.894     2.852E-20
  54401.963     3.001E-20
  54402.032     3.153E-20
  54402.101     3.323E-20
  54402.170     3.492E-20
  54402.239     3.660E-20
  54402.308     3.859E-20
  54402.376     4.071E-20
  54402.445     4.335E-20
  54402.514     4.571E-20
  54402.583     4.809E-20
  54402.652     5.037E-20
  54402.721     5.296E-20
  54402.790     5.651E-20
  54402.858     6.046E-20
  54402.927     6.455E-20
  54402.996     6.885E-20
  54403.065     7.628E-20
  54403.134     8.228E-20
  54403.203     8.983E-20
  54403.272     9.855E-20
  54403.341     1.083E-19
  54403.409     1.197E-19
  54403.478     1.328E-19
  54403.547     1.476E-19
  54403.616     1.737E-19
  54403.685     1.914E-19
  54403.754     2.099E-19
  54403.823     2.281E-19
  54403.892     2.467E-19
  54403.960     2.641E-19
  54404.029     2.782E-19
  54404.098     2.871E-19
  54404.167     2.934E-19
  54404.236     2.981E-19
  54404.305     3.004E-19
  54404.374     3.010E-19
  54404.443     3.000E-19
  54404.511     2.876E-19
  54404.580     2.787E-19
  54404.649     2.699E-19
  54404.718     2.587E-19
  54404.787     2.464E-19
  54404.856     2.337E-19
  54404.925     2.232E-19
  54404.994     2.159E-19
  54405.062     2.099E-19
  54405.131     2.069E-19
  54405.200     2.070E-19
  54405.269     2.091E-19
  54405.338     2.111E-19
  54405.407     2.145E-19
  54405.476     2.200E-19
  54405.545     2.260E-19
  54405.614     2.309E-19
  54405.682     2.343E-19
  54405.751     2.367E-19
  54405.820     2.358E-19
  54405.889     2.327E-19
  54405.958     2.273E-19
  54406.027     2.195E-19
  54406.096     2.111E-19
  54406.165     2.008E-19
  54406.233     1.905E-19
  54406.302     1.797E-19
  54406.371     1.688E-19
  54406.440     1.585E-19
  54406.509     1.475E-19
  54406.578     1.337E-19
  54406.647     1.236E-19
  54406.716     1.132E-19
  54406.784     1.031E-19
  54406.853     9.482E-20
  54406.922     8.788E-20
  54406.991     8.157E-20
  54407.060     7.588E-20
  54407.129     7.106E-20
  54407.198     6.566E-20
  54407.267     6.182E-20
  54407.336     5.814E-20
  54407.404     5.305E-20
  54407.473     5.134E-20
  54407.542     4.963E-20
  54407.611     4.826E-20
  54407.680     4.679E-20
  54407.749     4.566E-20
  54407.818     4.455E-20
  54407.887     4.273E-20
  54407.956     4.095E-20
  54408.024     3.916E-20
  54408.093     3.717E-20
  54408.162     3.583E-20
  54408.231     3.430E-20
  54408.300     3.281E-20
  54408.369     3.134E-20
  54408.438     2.969E-20
  54408.507     2.827E-20
  54408.576     2.686E-20
  54408.644     2.546E-20
  54408.713     2.438E-20
  54408.782     2.319E-20
  54408.851     2.194E-20
  54408.920     2.133E-20
  54408.989     2.098E-20
  54409.058     2.072E-20
  54409.127     2.026E-20
  54409.196     1.941E-20
  54409.264     1.849E-20
  54409.333     1.776E-20
  54409.402     1.702E-20
  54409.471     1.662E-20
  54409.540     1.663E-20
  54409.609     1.681E-20
  54409.678     1.717E-20
  54409.747     1.741E-20
  54409.816     1.758E-20
  54409.884     1.743E-20
  54409.953     1.698E-20
  54410.022     1.679E-20
  54410.091     1.638E-20
  54410.160     1.610E-20
  54410.229     1.617E-20
  54410.298     1.625E-20
  54410.367     1.633E-20
  54410.436     1.660E-20
  54410.505     1.702E-20
  54410.573     1.715E-20
  54410.642     1.740E-20
  54410.711     1.790E-20
  54410.780     1.830E-20
  54410.849     1.872E-20
  54410.918     1.959E-20
  54410.987     2.022E-20
  54411.056     2.038E-20
  54411.125     2.078E-20
  54411.194     2.116E-20
  54411.262     2.143E-20
  54411.331     2.207E-20
  54411.400     2.276E-20
  54411.469     2.345E-20
  54411.538     2.404E-20
  54411.607     2.480E-20
  54411.676     2.572E-20
  54411.745     2.718E-20
  54411.814     2.869E-20
  54411.882     3.009E-20
  54411.951     3.127E-20
  54412.020     3.295E-20
  54412.089     3.469E-20
  54412.158     3.685E-20
  54412.227     3.936E-20
  54412.296     4.207E-20
  54412.365     4.479E-20
  54412.434     4.755E-20
  54412.503     5.037E-20
  54412.572     5.319E-20
  54412.640     5.580E-20
  54412.709     5.855E-20
  54412.778     6.162E-20
  54412.847     6.460E-20
  54412.916     6.873E-20
  54412.985     7.503E-20
  54413.054     7.935E-20
  54413.123     8.278E-20
  54413.192     8.653E-20
  54413.261     9.149E-20
  54413.329     9.828E-20
  54413.398     1.072E-19
  54413.467     1.171E-19
  54413.536     1.273E-19
  54413.605     1.389E-19
  54413.674     1.541E-19
  54413.743     1.683E-19
  54413.812     1.844E-19
  54413.881     2.010E-19
  54413.950     2.174E-19
  54414.018     2.344E-19
  54414.087     2.518E-19
  54414.156     2.685E-19
  54414.225     2.824E-19
  54414.294     2.962E-19
  54414.363     3.049E-19
  54414.432     3.110E-19
  54414.501     3.145E-19
  54414.570     3.135E-19
  54414.639     3.067E-19
  54414.708     2.976E-19
  54414.776     2.807E-19
  54414.845     2.677E-19
  54414.914     2.521E-19
  54414.983     2.357E-19
  54415.052     2.181E-19
  54415.121     2.003E-19
  54415.190     1.831E-19
  54415.259     1.674E-19
  54415.328     1.549E-19
  54415.397     1.373E-19
  54415.466     1.275E-19
  54415.534     1.183E-19
  54415.603     1.099E-19
  54415.672     1.021E-19
  54415.741     9.502E-20
  54415.810     8.936E-20
  54415.879     8.615E-20
  54415.948     8.449E-20
  54416.017     8.238E-20
  54416.086     8.055E-20
  54416.155     7.862E-20
  54416.224     7.734E-20
  54416.293     7.802E-20
  54416.361     8.000E-20
  54416.430     8.182E-20
  54416.499     8.371E-20
  54416.568     8.580E-20
  54416.637     8.804E-20
  54416.706     9.083E-20
  54416.775     9.403E-20
  54416.844     9.766E-20
  54416.913     9.987E-20
  54416.982     1.013E-19
  54417.051     1.033E-19
  54417.120     1.048E-19
  54417.188     1.057E-19
  54417.257     1.062E-19
  54417.326     1.056E-19
  54417.395     1.049E-19
  54417.464     1.041E-19
  54417.533     1.026E-19
  54417.602     1.010E-19
  54417.671     1.005E-19
  54417.740     1.013E-19
  54417.809     1.030E-19
  54417.878     1.065E-19
  54417.947     1.115E-19
  54418.015     1.184E-19
  54418.084     1.252E-19
  54418.153     1.315E-19
  54418.222     1.393E-19
  54418.291     1.469E-19
  54418.360     1.539E-19
  54418.429     1.589E-19
  54418.498     1.612E-19
  54418.567     1.618E-19
  54418.636     1.601E-19
  54418.705     1.558E-19
  54418.774     1.430E-19
  54418.843     1.353E-19
  54418.911     1.270E-19
  54418.980     1.178E-19
  54419.049     1.084E-19
  54419.118     9.977E-20
  54419.187     9.164E-20
  54419.256     8.480E-20
  54419.325     7.963E-20
  54419.394     6.933E-20
  54419.463     6.423E-20
  54419.532     5.909E-20
  54419.601     5.098E-20
  54419.670     4.823E-20
  54419.739     4.562E-20
  54419.807     4.313E-20
  54419.876     3.923E-20
  54419.945     3.779E-20
  54420.014     3.667E-20
  54420.083     3.571E-20
  54420.152     3.503E-20
  54420.221     3.445E-20
  54420.290     3.369E-20
  54420.359     3.313E-20
  54420.428     3.275E-20
  54420.497     3.214E-20
  54420.566     3.204E-20
  54420.635     3.201E-20
  54420.703     3.194E-20
  54420.772     3.184E-20
  54420.841     3.118E-20
  54420.910     3.042E-20
  54420.979     2.976E-20
  54421.048     2.884E-20
  54421.117     2.764E-20
  54421.186     2.620E-20
  54421.255     2.452E-20
  54421.324     2.292E-20
  54421.393     2.155E-20
  54421.462     2.000E-20
  54421.531     1.898E-20
  54421.600     1.794E-20
  54421.669     1.700E-20
  54421.737     1.610E-20
  54421.806     1.494E-20
  54421.875     1.381E-20
  54421.944     1.295E-20
  54422.013     1.228E-20
  54422.082     1.152E-20
  54422.151     1.103E-20
  54422.220     1.068E-20
  54422.289     1.031E-20
  54422.358     1.007E-20
  54422.427     9.777E-21
  54422.496     9.415E-21
  54422.565     9.087E-21
  54422.634     8.809E-21
  54422.703     8.264E-21
  54422.771     7.932E-21
  54422.840     7.721E-21
  54422.909     7.276E-21
  54422.978     6.768E-21
  54423.047     6.410E-21
  54423.116     6.141E-21
  54423.185     5.725E-21
  54423.254     5.578E-21
  54423.323     5.552E-21
  54423.392     5.678E-21
  54423.461     5.778E-21
  54423.530     5.724E-21
  54423.599     5.708E-21
  54423.668     5.654E-21
  54423.737     5.512E-21
  54423.805     5.368E-21
  54423.874     5.188E-21
  54423.943     4.963E-21
  54424.012     4.899E-21
  54424.081     4.845E-21
  54424.150     4.695E-21
  54424.219     4.454E-21
  54424.288     4.221E-21
  54424.357     4.135E-21
  54424.426     4.038E-21
  54424.495     3.880E-21
  54424.564     3.994E-21
  54424.633     4.266E-21
  54424.702     4.242E-21
  54424.771     4.083E-21
  54424.840     3.858E-21
  54424.909     3.718E-21
  54424.977     3.682E-21
  54425.046     3.766E-21
  54425.115     3.655E-21
  54425.184     3.375E-21
  54425.253     3.196E-21
  54425.322     3.041E-21
  54425.391     3.005E-21
  54425.460     2.906E-21
  54425.529     2.800E-21
  54425.598     2.786E-21
  54425.667     2.827E-21
  54425.736     3.006E-21
  54425.805     3.092E-21
  54425.874     3.006E-21
  54425.943     3.052E-21
  54426.012     3.014E-21
  54426.081     2.961E-21
  54426.150     2.795E-21
  54426.218     2.664E-21
  54426.287     2.765E-21
  54426.356     2.906E-21
  54426.425     3.010E-21
  54426.494     2.881E-21
  54426.563     2.485E-21
  54426.632     2.316E-21
  54426.701     2.431E-21
  54426.770     2.647E-21
  54426.839     3.081E-21
  54426.908     3.544E-21
  54426.977     3.650E-21
  54427.046     3.771E-21
  54427.115     4.091E-21
  54427.184     4.152E-21
  54427.253     4.174E-21
  54427.322     4.124E-21
  54427.391     4.214E-21
  54427.460     4.218E-21
  54427.528     3.973E-21
  54427.597     3.809E-21
  54427.666     3.866E-21
  54427.735     3.904E-21
  54427.804     3.802E-21
  54427.873     3.654E-21
  54427.942     3.532E-21
  54428.011     3.570E-21
  54428.080     3.625E-21
  54428.149     3.885E-21
  54428.218     4.101E-21
  54428.287     4.070E-21
  54428.356     3.772E-21
  54428.425     3.523E-21
  54428.494     3.238E-21
  54428.563     2.943E-21
  54428.632     2.667E-21
  54428.701     2.327E-21
  54428.770     1.964E-21
  54428.839     1.768E-21
  54428.908     1.600E-21
  54428.976     1.615E-21
  54429.045     1.755E-21
  54429.114     2.019E-21
  54429.183     2.317E-21
  54429.252     2.434E-21
  54429.321     2.372E-21
  54429.390     2.276E-21
  54429.459     2.018E-21
  54429.528     1.800E-21
  54429.597     1.850E-21
  54429.666     1.817E-21
  54429.735     1.772E-21
  54429.804     1.800E-21
  54429.873     1.753E-21
  54429.942     1.575E-21
  54430.011     1.476E-21
  54430.080     1.673E-21
  54430.149     2.084E-21
  54430.218     2.290E-21
  54430.287     2.385E-21
  54430.356     2.496E-21
  54430.425     2.449E-21
  54430.494     2.495E-21
  54430.562     2.574E-21
  54430.631     2.733E-21
  54430.700     2.956E-21
  54430.769     2.913E-21
  54430.838     2.889E-21
  54430.907     2.941E-21
  54430.976     2.880E-21
  54431.045     2.610E-21
  54431.114     2.360E-21
  54431.183     2.245E-21
  54431.252     1.969E-21
  54431.321     1.819E-21
  54431.390     1.983E-21
  54431.459     2.093E-21
  54431.528     2.220E-21
  54431.597     2.410E-21
  54431.666     2.492E-21
  54431.735     2.333E-21
  54431.804     2.156E-21
  54431.873     1.982E-21
  54431.942     1.630E-21
  54432.011     1.284E-21
  54432.080     1.068E-21
  54432.149     1.134E-21
  54432.218     1.301E-21
  54432.287     1.290E-21
  54432.356     1.111E-21
  54432.424     1.082E-21
  54432.493     1.025E-21
  54432.562     7.588E-22
  54432.631     5.615E-22
  54432.700     8.350E-22
  54432.769     1.073E-21
  54432.838     1.099E-21
  54432.907     1.268E-21
  54432.976     1.455E-21
  54433.045     1.631E-21
  54433.114     1.542E-21
  54433.183     1.510E-21
  54433.252     1.475E-21
  54433.321     1.288E-21
  54433.390     1.008E-21
  54433.459     9.414E-22
  54433.528     9.429E-22
  54433.597     8.631E-22
  54433.666     8.149E-22
  54433.735     8.035E-22
  54433.804     8.195E-22
  54433.873     7.638E-22
  54433.942     7.519E-22
  54434.011     1.047E-21
  54434.080     1.403E-21
  54434.149     1.486E-21
  54434.218     1.365E-21
  54434.287     1.181E-21
  54434.356     9.971E-22
  54434.425     8.273E-22
  54434.494     7.824E-22
  54434.563     7.551E-22
  54434.631     4.125E-22
  54434.700     1.924E-22
  54434.769     2.197E-22
  54434.838     1.641E-22
  54434.907    -3.055E-23
  54434.976    -5.192E-23
  54435.045     9.985E-23
  54435.114     2.570E-22
  54435.183     5.560E-22
  54435.252     8.669E-22
  54435.321     9.504E-22
  54435.390     8.519E-22
  54435.459     7.876E-22
  54435.528     6.670E-22
  54435.597     6.756E-22
  54435.666     5.777E-22
  54435.735     5.377E-22
  54435.804     7.942E-22
  54435.873     1.042E-21
  54435.942     1.250E-21
  54436.011     1.170E-21
  54436.080     1.013E-21
  54436.149     9.216E-22
  54436.218     8.161E-22
  54436.287     6.647E-22
  54436.356     5.355E-22
  54436.425     3.453E-22
  54436.494     1.506E-23
  54436.563    -1.059E-22
  54436.632    -2.768E-23
  54436.701     1.385E-22
  54436.770     6.576E-22
  54436.839     1.010E-21
  54436.908     1.113E-21
  54436.977     1.132E-21
  54437.046     1.022E-21
  54437.115     7.024E-22
  54437.184     4.900E-22
  54437.253     4.479E-22
  54437.322     4.309E-22
  54437.391     4.687E-22
  54437.460     5.987E-22
  54437.529     8.737E-22
  54437.598     9.893E-22
  54437.667     1.169E-21
  54437.735     1.332E-21
  54437.804     1.469E-21
  54437.873     1.420E-21
  54437.942     1.331E-21
  54438.011     1.067E-21
  54438.080     7.604E-22
  54438.149     6.329E-22
  54438.218     6.455E-22
  54438.287     7.333E-22
  54438.356     8.376E-22
  54438.425     9.383E-22
  54438.494     9.786E-22
  54438.563     8.586E-22
  54438.632     8.013E-22
  54438.701     8.435E-22
  54438.770     1.087E-21
  54438.839     1.308E-21
  54438.908     1.522E-21
  54438.977     1.589E-21
  54439.046     1.428E-21
  54439.115     9.312E-22
  54439.184     5.026E-22
  54439.253     1.921E-22
  54439.322     2.603E-23
  54439.391     1.872E-22
  54439.460     5.704E-22
  54439.529     7.394E-22
  54439.598     1.050E-21
  54439.667     1.351E-21
  54439.736     1.642E-21
  54439.805     1.875E-21
  54439.874     1.778E-21
  54439.943     1.501E-21
  54440.012     1.567E-21
  54440.081     1.670E-21
  54440.150     1.816E-21
  54440.219     1.977E-21
  54440.288     2.034E-21
  54440.357     2.070E-21
  54440.426     2.167E-21
  54440.495     2.155E-21
  54440.564     1.951E-21
  54440.633     1.760E-21
  54440.702     1.641E-21
  54440.771     1.456E-21
  54440.840     1.332E-21
  54440.909     1.332E-21
  54440.978     1.379E-21
  54441.047     1.524E-21
  54441.116     1.629E-21
  54441.185     1.738E-21
  54441.254     1.697E-21
  54441.323     1.500E-21
  54441.392     1.232E-21
  54441.461     9.858E-22
  54441.530     7.837E-22
  54441.599     6.666E-22
  54441.668     3.811E-22
  54441.737     2.939E-22
  54441.806     2.787E-22
  54441.875     2.230E-22
  54441.944     2.098E-22
  54442.013     2.411E-22
  54442.082     1.850E-22
  54442.151     2.053E-22
  54442.220     4.373E-22
  54442.289     6.383E-22
  54442.358     7.015E-22
  54442.427     7.816E-22
  54442.496     7.220E-22
  54442.565     6.181E-22
  54442.634     8.415E-22
  54442.703     1.040E-21
  54442.772     1.126E-21
  54442.841     1.164E-21
  54442.910     9.522E-22
  54442.979     6.658E-22
  54443.048     5.765E-22
  54443.117     6.866E-22
  54443.186     6.481E-22
  54443.255     5.874E-22
  54443.324     5.406E-22
  54443.393     3.901E-22
  54443.462     3.527E-22
  54443.531     3.165E-22
  54443.600     5.227E-22
  54443.669     7.382E-22
  54443.738     8.183E-22
  54443.807     8.221E-22
  54443.876     6.618E-22
  54443.945     4.912E-22
  54444.014     3.305E-22
  54444.083     1.724E-22
  54444.152     1.306E-22
  54444.221     4.936E-23
  54444.290     5.278E-23
  54444.359     8.021E-23
  54444.428     2.135E-22
  54444.497     3.804E-22
  54444.566     6.040E-22
  54444.635     7.041E-22
  54444.704     5.846E-22
  54444.773     3.493E-22
  54444.842     4.121E-22
  54444.911     7.054E-22
  54444.980     9.279E-22
  54445.049     1.036E-21
  54445.118     1.044E-21
  54445.187     1.043E-21
  54445.256     9.197E-22
  54445.325     1.075E-21
  54445.394     1.155E-21
  54445.463     1.223E-21
  54445.532     1.096E-21
  54445.601     9.863E-22
  54445.670     8.705E-22
  54445.739     8.606E-22
  54445.808     1.050E-21
  54445.877     1.173E-21
  54445.946     1.255E-21
  54446.015     1.268E-21
  54446.084     1.335E-21
  54446.153     1.372E-21
  54446.222     1.263E-21
  54446.291     1.154E-21
  54446.360     1.223E-21
  54446.429     1.389E-21
  54446.498     1.597E-21
  54446.567     1.802E-21
  54446.636     2.004E-21
  54446.705     1.961E-21
  54446.774     1.967E-21
  54446.843     1.757E-21
  54446.912     1.480E-21
  54446.981     1.308E-21
  54447.050     1.312E-21
  54447.119     1.304E-21
  54447.188     1.176E-21
  54447.257     1.018E-21
  54447.326     1.142E-21
  54447.395     1.149E-21
  54447.464     1.100E-21
  54447.533     1.113E-21
  54447.602     1.089E-21
  54447.671     1.119E-21
  54447.740     1.234E-21
  54447.809     1.140E-21
  54447.878     1.038E-21
  54447.947     1.277E-21
  54448.016     1.508E-21
  54448.085     1.542E-21
  54448.154     1.412E-21
  54448.223     1.227E-21
  54448.292     1.195E-21
  54448.361     1.417E-21
  54448.430     1.707E-21
  54448.499     1.864E-21
  54448.569     1.688E-21
  54448.638     1.564E-21
  54448.707     1.518E-21
  54448.776     1.369E-21
  54448.845     1.481E-21
  54448.914     1.657E-21
  54448.983     1.557E-21
  54449.052     1.367E-21
  54449.121     1.272E-21
  54449.190     1.003E-21
  54449.259     1.022E-21
  54449.328     1.158E-21
  54449.397     1.289E-21
  54449.466     1.477E-21
  54449.535     1.567E-21
  54449.604     1.686E-21
  54449.673     1.628E-21
  54449.742     1.547E-21
  54449.811     1.368E-21
  54449.880     1.043E-21
  54449.949     5.830E-22
  54450.018     1.717E-22
  54450.087    -4.892E-23
  54450.156     1.406E-23
  54450.225     2.480E-22
  54450.294     4.357E-22
  54450.363     3.955E-22
  54450.432     4.876E-22
  54450.501     6.336E-22
  54450.570     5.342E-22
  54450.639     5.308E-22
  54450.708     7.634E-22
  54450.777     9.908E-22
  54450.846     1.148E-21
  54450.915     1.165E-21
  54450.984     1.112E-21
  54451.053     8.999E-22
  54451.122     5.819E-22
  54451.191     3.355E-22
  54451.260     2.290E-22
  54451.329     4.407E-22
  54451.398     7.873E-22
  54451.467     8.355E-22
  54451.536     8.171E-22
  54451.605     7.532E-22
  54451.675     6.057E-22
  54451.744     5.998E-22
  54451.813     6.282E-22
  54451.882     6.526E-22
  54451.951     8.046E-22
  54452.020     7.371E-22
  54452.089     5.776E-22
  54452.158     5.819E-22
  54452.227     4.856E-22
  54452.296     3.235E-22
  54452.365     2.648E-22
  54452.434     1.072E-22
  54452.503     5.061E-23
  54452.572     1.473E-22
  54452.641     2.254E-22
  54452.710     5.274E-22
  54452.779     9.550E-22
  54452.848     1.187E-21
  54452.917     1.356E-21
  54452.986     1.572E-21
  54453.055     1.533E-21
  54453.124     1.547E-21
  54453.193     1.667E-21
  54453.262     1.867E-21
  54453.331     2.079E-21
  54453.400     2.123E-21
  54453.469     1.989E-21
  54453.538     1.952E-21
  54453.607     1.874E-21
  54453.676     1.985E-21
  54453.745     2.090E-21
  54453.814     1.931E-21
  54453.884     1.878E-21
  54453.953     1.878E-21
  54454.022     2.038E-21
  54454.091     2.031E-21
  54454.160     1.817E-21
  54454.229     1.676E-21
  54454.298     1.603E-21
  54454.367     1.562E-21
  54454.436     1.599E-21
  54454.505     1.729E-21
  54454.574     1.746E-21
  54454.643     1.565E-21
  54454.712     1.179E-21
  54454.781     8.323E-22
  54454.850     7.061E-22
  54454.919     7.447E-22
  54454.988     9.174E-22
  54455.057     1.081E-21
  54455.126     1.141E-21
  54455.195     1.253E-21
  54455.264     1.266E-21
  54455.333     1.392E-21
  54455.402     1.451E-21
  54455.471     1.481E-21
  54455.540     1.510E-21
  54455.609     1.413E-21
  54455.678     1.522E-21
  54455.748     1.472E-21
  54455.817     1.309E-21
  54455.886     1.292E-21
  54455.955     1.242E-21
  54456.024     1.278E-21
  54456.093     1.428E-21
  54456.162     1.743E-21
  54456.231     1.841E-21
  54456.300     1.551E-21
  54456.369     1.326E-21
  54456.438     1.133E-21
  54456.507     9.224E-22
  54456.576     6.054E-22
  54456.645     4.080E-22
  54456.714     3.323E-22
  54456.783     3.275E-22
  54456.852     5.189E-22
  54456.921     6.041E-22
  54456.990     5.269E-22
  54457.059     5.632E-22
  54457.128     5.938E-22
  54457.197     3.525E-22
  54457.266     1.394E-22
  54457.336    -1.464E-22
  54457.405    -2.247E-22
  54457.474    -7.350E-23
  54457.543    -1.224E-23
  54457.612     1.637E-23
  54457.681    -1.005E-22
  54457.750    -9.347E-23
  54457.819    -3.049E-23
  54457.888     5.860E-23
  54457.957     2.934E-22
  54458.026     3.940E-22
  54458.095     5.526E-22
  54458.164     8.912E-22
  54458.233     1.028E-21
  54458.302     8.265E-22
  54458.371     7.556E-22
  54458.440     7.567E-22
  54458.509     8.006E-22
  54458.578     8.901E-22
  54458.647     9.013E-22
  54458.716     1.154E-21
  54458.786     1.302E-21
  54458.855     1.443E-21
  54458.924     1.545E-21
  54458.993     1.572E-21
  54459.062     1.540E-21
  54459.131     1.611E-21
  54459.200     1.892E-21
  54459.269     2.051E-21
  54459.338     1.865E-21
  54459.407     1.717E-21
  54459.476     1.941E-21
  54459.545     2.103E-21
  54459.614     2.346E-21
  54459.683     2.537E-21
  54459.752     2.686E-21
  54459.821     2.480E-21
  54459.890     2.139E-21
  54459.959     1.833E-21
  54460.028     1.554E-21
  54460.098     1.475E-21
  54460.167     1.627E-21
  54460.236     1.729E-21
  54460.305     1.655E-21
  54460.374     1.564E-21
  54460.443     1.342E-21
  54460.512     1.318E-21
  54460.581     1.519E-21
  54460.650     1.789E-21
  54460.719     1.970E-21
  54460.788     2.138E-21
  54460.857     2.274E-21
  54460.926     2.172E-21
  54460.995     2.056E-21
  54461.064     1.732E-21
  54461.133     1.489E-21
  54461.202     1.464E-21
  54461.271     1.413E-21
  54461.341     1.452E-21
  54461.410     1.334E-21
  54461.479     1.295E-21
  54461.548     1.202E-21
  54461.617     9.483E-22
  54461.686     8.866E-22
  54461.755     8.337E-22
  54461.824     7.043E-22
  54461.893     6.419E-22
  54461.962     6.888E-22
  54462.031     7.424E-22
  54462.100     6.987E-22
  54462.169     6.792E-22
  54462.238     7.350E-22
  54462.307     6.713E-22
  54462.376     5.274E-22
  54462.445     1.841E-22
  54462.515     4.872E-23
  54462.584     1.922E-22
  54462.653     3.405E-22
  54462.722     3.583E-22
  54462.791     2.192E-22
  54462.860     9.332E-23
  54462.929     8.984E-23
  54462.998     2.385E-22
  54463.067     5.775E-22
  54463.136     9.149E-22
  54463.205     1.243E-21
  54463.274     1.513E-21
  54463.343     1.655E-21
  54463.412     1.810E-21
  54463.481     1.922E-21
  54463.551     2.266E-21
  54463.620     2.428E-21
  54463.689     2.515E-21
  54463.758     2.580E-21
  54463.827     2.323E-21
  54463.896     2.088E-21
  54463.965     1.918E-21
  54464.034     1.929E-21
  54464.103     2.024E-21
  54464.172     2.065E-21
  54464.241     2.175E-21
  54464.310     2.171E-21
  54464.379     2.081E-21
  54464.448     2.043E-21
  54464.517     2.056E-21
  54464.587     1.985E-21
  54464.656     1.801E-21
  54464.725     1.570E-21
  54464.794     1.336E-21
  54464.863     1.375E-21
  54464.932     1.428E-21
  54465.001     1.309E-21
  54465.070     1.178E-21
  54465.139     1.007E-21
  54465.208     1.012E-21
  54465.277     1.137E-21
  54465.346     1.220E-21
  54465.415     1.364E-21
  54465.484     1.359E-21
  54465.554     1.095E-21
  54465.623     8.931E-22
  54465.692     7.657E-22
  54465.761     7.195E-22
  54465.830     7.664E-22
  54465.899     8.492E-22
  54465.968     9.756E-22
  54466.037     1.084E-21
  54466.106     1.072E-21
  54466.175     1.285E-21
  54466.244     1.650E-21
  54466.313     1.732E-21
  54466.382     1.696E-21
  54466.451     1.777E-21
  54466.521     1.897E-21
  54466.590     1.929E-21
  54466.659     2.213E-21
  54466.728     2.364E-21
  54466.797     2.468E-21
  54466.866     2.535E-21
  54466.935     2.446E-21
  54467.004     2.100E-21
  54467.073     1.994E-21
  54467.142     2.000E-21
  54467.211     1.846E-21
  54467.280     1.952E-21
  54467.349     2.237E-21
  54467.419     2.212E-21
  54467.488     2.101E-21
  54467.557     1.995E-21
  54467.626     1.693E-21
  54467.695     1.227E-21
  54467.764     9.041E-22
  54467.833     7.930E-22
  54467.902     8.148E-22
  54467.971     9.254E-22
  54468.040     1.263E-21
  54468.109     1.472E-21
  54468.178     1.660E-21
  54468.247     1.744E-21
  54468.317     1.810E-21
  54468.386     1.857E-21
  54468.455     1.802E-21
  54468.524     1.672E-21
  54468.593     1.384E-21
  54468.662     1.233E-21
  54468.731     1.312E-21
  54468.800     1.512E-21
  54468.869     1.637E-21
  54468.938     1.779E-21
  54469.007     1.876E-21
  54469.076     1.962E-21
  54469.146     1.810E-21
  54469.215     1.641E-21
  54469.284     1.630E-21
  54469.353     1.406E-21
  54469.422     1.105E-21
  54469.491     7.146E-22
  54469.560     4.296E-22
  54469.629     3.571E-22
  54469.698     2.199E-22
  54469.767     4.002E-22
  54469.836     6.266E-22
  54469.905     5.904E-22
  54469.975     3.451E-22
  54470.044     2.207E-22
  54470.113     1.062E-22
  54470.182     3.238E-23
  54470.251    -1.558E-22
  54470.320    -3.677E-22
  54470.389    -3.412E-22
  54470.458    -3.069E-22
  54470.527    -2.972E-22
  54470.596    -1.320E-22
  54470.665     2.139E-22
  54470.735     5.733E-22
  54470.804     5.000E-22
  54470.873     4.548E-22
  54470.942     3.632E-22
  54471.011     2.767E-22
  54471.080     3.304E-22
  54471.149     3.167E-22
  54471.218     2.515E-22
  54471.287     2.699E-22
  54471.356     3.248E-22
  54471.425     4.640E-22
  54471.495     4.655E-22
  54471.564     3.356E-22
  54471.633     1.509E-22
  54471.702    -2.219E-23
  54471.771    -3.811E-23
  54471.840    -6.289E-23
  54471.909    -2.638E-22
  54471.978    -2.767E-22
  54472.047    -2.032E-22
  54472.116    -3.319E-23
  54472.185    -6.135E-23
  54472.255    -1.616E-22
  54472.324     3.978E-23
  54472.393     3.895E-22
  54472.462     7.433E-22
  54472.531     8.548E-22
  54472.600     8.155E-22
  54472.669     6.213E-22
  54472.738     3.013E-22
  54472.807     1.360E-22
  54472.876     3.264E-22
  54472.945     4.401E-22
  54473.015     6.121E-22
  54473.084     5.899E-22
  54473.153     3.934E-22
  54473.222     1.870E-22
  54473.291     2.027E-22
  54473.360     4.756E-22
  54473.429     4.752E-22
  54473.498     2.640E-22
  54473.567     6.824E-23
  54473.636     8.830E-23
  54473.706     2.480E-22
  54473.775     3.773E-22
  54473.844     5.588E-22
  54473.913     6.230E-22
  54473.982     4.610E-22
  54474.051     4.281E-22
  54474.120     3.631E-22
  54474.189     1.068E-22
  54474.258     1.567E-23
  54474.327    -1.469E-22
  54474.397    -5.011E-22
  54474.466    -8.704E-22
  54474.535    -7.973E-22
  54474.604    -6.041E-22
  54474.673    -4.725E-22
  54474.742    -4.804E-22
  54474.811    -4.723E-22
  54474.880    -5.566E-22
  54474.949    -7.100E-22
  54475.018    -5.524E-22
  54475.088    -3.880E-22
  54475.157    -5.019E-22
  54475.226    -5.816E-22
  54475.295    -5.997E-22
  54475.364    -6.281E-22
  54475.433    -5.518E-22
  54475.502    -1.939E-22
  54475.571     1.597E-24
  54475.640     2.295E-22
  54475.709     5.683E-22
  54475.779     6.334E-22
  54475.848     3.910E-22
  54475.917     1.556E-22
  54475.986    -2.972E-22
  54476.055    -3.581E-22
  54476.124    -3.195E-22
  54476.193    -8.469E-23
  54476.262     3.685E-22
  54476.331     6.842E-22
  54476.401     5.648E-22
  54476.470     6.135E-23
  54476.539    -5.083E-23
  54476.608     9.162E-24
  54476.677     1.637E-23
  54476.746     7.690E-23
  54476.815     7.683E-23
  54476.884     6.781E-23
  54476.953    -5.546E-23
  54477.022    -8.460E-23
  54477.092    -7.988E-23
  54477.161    -1.651E-22
  54477.230    -7.125E-23
  54477.299    -1.531E-22
  54477.368    -3.024E-22
  54477.437    -5.246E-22
  54477.506    -6.425E-22
  54477.575    -5.854E-22
  54477.644    -3.652E-22
  54477.714    -9.610E-23
  54477.783     1.107E-22
  54477.852     1.789E-22
  54477.921     1.629E-22
  54477.990    -7.614E-23
  54478.059    -2.627E-22
  54478.128    -4.205E-22
  54478.197    -4.941E-22
  54478.266    -5.032E-22
  54478.336    -4.654E-22
  54478.405    -2.110E-22
  54478.474     5.711E-23
  54478.543     1.052E-22
  54478.612    -3.073E-23
  54478.681     1.456E-23
  54478.750     9.051E-23
  54478.819    -1.948E-23
  54478.889    -2.370E-22
  54478.958    -3.097E-22
  54479.027    -1.302E-22
  54479.096    -2.476E-23
  54479.165     1.741E-22
  54479.234     3.876E-22
  54479.303     2.565E-22
  54479.372     1.683E-22
  54479.441     1.970E-22
  54479.511     6.035E-23
  54479.580    -2.616E-23
  54479.649    -3.042E-23
  54479.718    -9.212E-23
  54479.787     2.666E-23
  54479.856     6.525E-23
  54479.925     1.368E-22
  54479.994     1.422E-22
  54480.063    -4.233E-23
  54480.133    -2.951E-22
  54480.202    -3.900E-22
  54480.271    -6.592E-22
  54480.340    -9.569E-22
  54480.409    -1.146E-21
  54480.478    -9.820E-22
  54480.547    -7.730E-22
  54480.616    -4.345E-22
  54480.686    -2.509E-22
  54480.755    -2.148E-22
  54480.824    -8.707E-23
  54480.893    -9.411E-23
  54480.962    -3.565E-23
  54481.031     1.567E-22
  54481.100     2.938E-22
  54481.169     5.217E-22
  54481.239     6.052E-22
  54481.308     6.420E-22
  54481.377     5.789E-22
  54481.446     5.087E-22
  54481.515     4.706E-22
  54481.584     3.094E-22
  54481.653     5.565E-23
  54481.722     4.755E-23
  54481.792     1.277E-22
  54481.861     1.331E-22
  54481.930     4.541E-23
  54481.999    -5.281E-23
  54482.068     7.303E-23
  54482.137     2.517E-22
  54482.206     3.033E-22
  54482.275     3.379E-22
  54482.345     5.152E-22
  54482.414     5.578E-22
  54482.483     5.375E-22
  54482.552     4.009E-22
  54482.621     2.824E-22
  54482.690     2.642E-22
  54482.759     1.540E-22
  54482.828     1.494E-22
  54482.898     8.028E-23
  54482.967     9.567E-25
  54483.036     1.761E-23
  54483.105     4.099E-23
  54483.174    -2.381E-23
  54483.243    -1.483E-22
  54483.312    -4.124E-22
  54483.381    -4.084E-22
  54483.451    -1.964E-22
  54483.520    -1.367E-22
  54483.589    -2.332E-22
  54483.658    -2.243E-22
  54483.727    -2.537E-22
  54483.796    -3.093E-22
  54483.865    -3.397E-22
  54483.934    -5.079E-22
  54484.004    -5.204E-22
  54484.073    -5.228E-22
  54484.142    -4.356E-22
  54484.211    -3.627E-22
  54484.280    -2.931E-22
  54484.349    -1.260E-22
  54484.418     5.409E-23
  54484.488     1.713E-22
  54484.557     4.710E-22
  54484.626     4.847E-22
  54484.695     5.985E-22
  54484.764     4.188E-22
  54484.833     9.278E-23
  54484.902    -3.225E-23
  54484.971    -3.438E-23
  54485.041     2.293E-22
  54485.110     1.417E-22
  54485.179     2.548E-23
  54485.248     2.477E-23
  54485.317    -1.708E-22
  54485.386    -1.157E-22
  54485.455    -1.355E-22
  54485.525    -1.643E-22
  54485.594    -1.448E-22
  54485.663    -2.258E-22
  54485.732    -1.392E-22
  54485.801    -1.117E-22
  54485.870    -2.565E-22
  54485.939    -3.333E-22
  54486.008    -1.527E-22
  54486.078    -1.767E-22
  54486.147    -7.372E-23
  54486.216    -6.184E-23
  54486.285    -1.351E-22
  54486.354    -8.311E-24
  54486.423     1.336E-22
  54486.492     1.567E-22
  54486.562     9.755E-24
  54486.632    -8.253E-23
