#  O2 xsec;CfA;O2WB7X0;300 K;53250-53746 cm-1;6334 pts         
#    WNO      SIGMA
  53250.028     8.939E-23
  53250.096     8.994E-23
  53250.164     9.024E-23
  53250.232     9.016E-23
  53250.300     8.989E-23
  53250.368     8.963E-23
  53250.437     8.959E-23
  53250.505     8.985E-23
  53250.573     9.022E-23
  53250.641     9.068E-23
  53250.709     9.095E-23
  53250.778     9.093E-23
  53250.846     9.087E-23
  53250.914     9.084E-23
  53250.982     9.097E-23
  53251.050     9.100E-23
  53251.118     9.120E-23
  53251.187     9.147E-23
  53251.255     9.168E-23
  53251.323     9.171E-23
  53251.391     9.152E-23
  53251.459     9.123E-23
  53251.527     9.088E-23
  53251.596     9.041E-23
  53251.664     8.992E-23
  53251.732     8.953E-23
  53251.800     8.939E-23
  53251.868     8.974E-23
  53251.936     8.997E-23
  53252.005     8.989E-23
  53252.073     8.948E-23
  53252.141     8.906E-23
  53252.209     8.868E-23
  53252.277     8.836E-23
  53252.346     8.815E-23
  53252.414     8.792E-23
  53252.482     8.762E-23
  53252.550     8.725E-23
  53252.618     8.714E-23
  53252.686     8.752E-23
  53252.755     8.796E-23
  53252.823     8.834E-23
  53252.891     8.870E-23
  53252.959     8.879E-23
  53253.027     8.899E-23
  53253.095     8.923E-23
  53253.164     8.937E-23
  53253.232     8.980E-23
  53253.300     9.035E-23
  53253.368     9.082E-23
  53253.436     9.102E-23
  53253.504     9.119E-23
  53253.573     9.146E-23
  53253.641     9.186E-23
  53253.709     9.224E-23
  53253.777     9.256E-23
  53253.845     9.270E-23
  53253.914     9.283E-23
  53253.982     9.334E-23
  53254.050     9.418E-23
  53254.118     9.524E-23
  53254.186     9.654E-23
  53254.254     9.789E-23
  53254.323     9.929E-23
  53254.391     1.010E-22
  53254.459     1.030E-22
  53254.527     1.047E-22
  53254.595     1.062E-22
  53254.663     1.077E-22
  53254.732     1.092E-22
  53254.800     1.111E-22
  53254.868     1.133E-22
  53254.936     1.159E-22
  53255.004     1.186E-22
  53255.072     1.210E-22
  53255.141     1.232E-22
  53255.209     1.259E-22
  53255.277     1.291E-22
  53255.345     1.323E-22
  53255.413     1.358E-22
  53255.481     1.391E-22
  53255.550     1.425E-22
  53255.618     1.470E-22
  53255.686     1.518E-22
  53255.754     1.567E-22
  53255.822     1.619E-22
  53255.891     1.672E-22
  53255.959     1.723E-22
  53256.027     1.770E-22
  53256.095     1.817E-22
  53256.163     1.861E-22
  53256.231     1.905E-22
  53256.300     1.953E-22
  53256.368     1.996E-22
  53256.436     2.028E-22
  53256.504     2.046E-22
  53256.572     2.057E-22
  53256.640     2.073E-22
  53256.709     2.090E-22
  53256.777     2.107E-22
  53256.845     2.122E-22
  53256.913     2.132E-22
  53256.981     2.132E-22
  53257.049     2.128E-22
  53257.118     2.127E-22
  53257.186     2.123E-22
  53257.254     2.119E-22
  53257.322     2.109E-22
  53257.390     2.098E-22
  53257.459     2.084E-22
  53257.527     2.067E-22
  53257.595     2.050E-22
  53257.663     2.027E-22
  53257.731     1.996E-22
  53257.799     1.957E-22
  53257.868     1.917E-22
  53257.936     1.891E-22
  53258.004     1.871E-22
  53258.072     1.846E-22
  53258.140     1.817E-22
  53258.208     1.780E-22
  53258.277     1.744E-22
  53258.345     1.710E-22
  53258.413     1.678E-22
  53258.481     1.649E-22
  53258.549     1.618E-22
  53258.617     1.584E-22
  53258.686     1.545E-22
  53258.754     1.508E-22
  53258.822     1.475E-22
  53258.890     1.447E-22
  53258.958     1.425E-22
  53259.026     1.405E-22
  53259.095     1.380E-22
  53259.163     1.349E-22
  53259.231     1.317E-22
  53259.299     1.289E-22
  53259.367     1.266E-22
  53259.436     1.251E-22
  53259.504     1.240E-22
  53259.572     1.229E-22
  53259.640     1.217E-22
  53259.708     1.203E-22
  53259.776     1.185E-22
  53259.845     1.170E-22
  53259.913     1.153E-22
  53259.981     1.134E-22
  53260.049     1.123E-22
  53260.117     1.117E-22
  53260.185     1.107E-22
  53260.254     1.097E-22
  53260.322     1.087E-22
  53260.390     1.078E-22
  53260.458     1.070E-22
  53260.526     1.059E-22
  53260.594     1.046E-22
  53260.663     1.031E-22
  53260.731     1.019E-22
  53260.799     1.010E-22
  53260.867     1.002E-22
  53260.935     1.001E-22
  53261.003     1.002E-22
  53261.072     1.003E-22
  53261.140     1.002E-22
  53261.208     9.973E-23
  53261.276     9.867E-23
  53261.344     9.722E-23
  53261.413     9.625E-23
  53261.481     9.594E-23
  53261.549     9.600E-23
  53261.617     9.663E-23
  53261.685     9.736E-23
  53261.753     9.784E-23
  53261.822     9.784E-23
  53261.890     9.774E-23
  53261.958     9.779E-23
  53262.026     9.779E-23
  53262.094     9.783E-23
  53262.162     9.781E-23
  53262.231     9.738E-23
  53262.299     9.645E-23
  53262.367     9.523E-23
  53262.435     9.378E-23
  53262.503     9.292E-23
  53262.571     9.237E-23
  53262.640     9.237E-23
  53262.708     9.317E-23
  53262.776     9.401E-23
  53262.844     9.448E-23
  53262.912     9.456E-23
  53262.980     9.469E-23
  53263.049     9.493E-23
  53263.117     9.547E-23
  53263.185     9.566E-23
  53263.253     9.557E-23
  53263.321     9.538E-23
  53263.390     9.488E-23
  53263.458     9.485E-23
  53263.526     9.517E-23
  53263.594     9.545E-23
  53263.662     9.598E-23
  53263.730     9.675E-23
  53263.799     9.759E-23
  53263.867     9.862E-23
  53263.935     9.968E-23
  53264.003     1.003E-22
  53264.071     1.002E-22
  53264.139     9.997E-23
  53264.208     9.960E-23
  53264.276     9.934E-23
  53264.344     9.926E-23
  53264.412     9.941E-23
  53264.480     9.938E-23
  53264.548     9.922E-23
  53264.617     9.908E-23
  53264.685     9.896E-23
  53264.753     9.872E-23
  53264.821     9.858E-23
  53264.889     9.879E-23
  53264.957     9.916E-23
  53265.026     9.931E-23
  53265.094     9.937E-23
  53265.162     9.934E-23
  53265.230     9.913E-23
  53265.298     9.927E-23
  53265.367     9.949E-23
  53265.435     9.960E-23
  53265.503     9.979E-23
  53265.571     1.002E-22
  53265.639     1.007E-22
  53265.707     1.016E-22
  53265.776     1.025E-22
  53265.844     1.029E-22
  53265.912     1.031E-22
  53265.980     1.032E-22
  53266.048     1.034E-22
  53266.116     1.038E-22
  53266.185     1.046E-22
  53266.253     1.055E-22
  53266.321     1.063E-22
  53266.389     1.068E-22
  53266.457     1.072E-22
  53266.525     1.075E-22
  53266.594     1.074E-22
  53266.662     1.074E-22
  53266.730     1.080E-22
  53266.798     1.089E-22
  53266.866     1.096E-22
  53266.934     1.099E-22
  53267.003     1.100E-22
  53267.071     1.099E-22
  53267.139     1.102E-22
  53267.207     1.109E-22
  53267.275     1.118E-22
  53267.344     1.126E-22
  53267.412     1.131E-22
  53267.480     1.137E-22
  53267.548     1.140E-22
  53267.616     1.140E-22
  53267.684     1.142E-22
  53267.753     1.146E-22
  53267.821     1.149E-22
  53267.889     1.152E-22
  53267.957     1.158E-22
  53268.025     1.168E-22
  53268.093     1.177E-22
  53268.162     1.184E-22
  53268.230     1.187E-22
  53268.298     1.192E-22
  53268.366     1.202E-22
  53268.434     1.217E-22
  53268.502     1.232E-22
  53268.571     1.247E-22
  53268.639     1.255E-22
  53268.707     1.256E-22
  53268.775     1.255E-22
  53268.843     1.259E-22
  53268.911     1.260E-22
  53268.980     1.262E-22
  53269.048     1.272E-22
  53269.116     1.282E-22
  53269.184     1.295E-22
  53269.252     1.310E-22
  53269.320     1.323E-22
  53269.389     1.336E-22
  53269.457     1.348E-22
  53269.525     1.362E-22
  53269.593     1.378E-22
  53269.661     1.390E-22
  53269.730     1.404E-22
  53269.798     1.417E-22
  53269.866     1.424E-22
  53269.934     1.424E-22
  53270.002     1.424E-22
  53270.070     1.429E-22
  53270.139     1.437E-22
  53270.207     1.453E-22
  53270.275     1.478E-22
  53270.343     1.511E-22
  53270.411     1.544E-22
  53270.479     1.577E-22
  53270.548     1.609E-22
  53270.616     1.635E-22
  53270.684     1.657E-22
  53270.752     1.676E-22
  53270.820     1.696E-22
  53270.888     1.723E-22
  53270.957     1.755E-22
  53271.025     1.790E-22
  53271.093     1.825E-22
  53271.161     1.866E-22
  53271.229     1.912E-22
  53271.297     1.958E-22
  53271.366     2.003E-22
  53271.434     2.044E-22
  53271.502     2.092E-22
  53271.570     2.154E-22
  53271.638     2.230E-22
  53271.706     2.326E-22
  53271.775     2.442E-22
  53271.843     2.579E-22
  53271.911     2.735E-22
  53271.979     2.903E-22
  53272.047     3.088E-22
  53272.116     3.292E-22
  53272.184     3.515E-22
  53272.252     3.763E-22
  53272.320     4.017E-22
  53272.388     4.271E-22
  53272.456     4.535E-22
  53272.525     4.815E-22
  53272.593     5.109E-22
  53272.661     5.411E-22
  53272.729     5.691E-22
  53272.797     5.939E-22
  53272.865     6.168E-22
  53272.934     6.361E-22
  53273.002     6.521E-22
  53273.070     6.670E-22
  53273.138     6.812E-22
  53273.206     6.951E-22
  53273.274     7.064E-22
  53273.343     7.185E-22
  53273.411     7.308E-22
  53273.479     7.394E-22
  53273.547     7.445E-22
  53273.615     7.480E-22
  53273.683     7.488E-22
  53273.752     7.490E-22
  53273.820     7.457E-22
  53273.888     7.382E-22
  53273.956     7.264E-22
  53274.024     7.100E-22
  53274.092     6.901E-22
  53274.161     6.669E-22
  53274.229     6.445E-22
  53274.297     6.245E-22
  53274.365     6.056E-22
  53274.433     5.863E-22
  53274.502     5.659E-22
  53274.570     5.455E-22
  53274.638     5.233E-22
  53274.706     4.996E-22
  53274.774     4.775E-22
  53274.842     4.595E-22
  53274.911     4.448E-22
  53274.979     4.319E-22
  53275.047     4.203E-22
  53275.115     4.094E-22
  53275.183     4.004E-22
  53275.251     3.925E-22
  53275.320     3.840E-22
  53275.388     3.744E-22
  53275.456     3.653E-22
  53275.524     3.583E-22
  53275.592     3.535E-22
  53275.660     3.497E-22
  53275.729     3.466E-22
  53275.797     3.434E-22
  53275.865     3.406E-22
  53275.933     3.387E-22
  53276.001     3.379E-22
  53276.069     3.389E-22
  53276.138     3.403E-22
  53276.206     3.410E-22
  53276.274     3.428E-22
  53276.342     3.444E-22
  53276.410     3.444E-22
  53276.478     3.436E-22
  53276.547     3.422E-22
  53276.615     3.410E-22
  53276.683     3.423E-22
  53276.751     3.445E-22
  53276.819     3.470E-22
  53276.887     3.501E-22
  53276.956     3.549E-22
  53277.024     3.616E-22
  53277.092     3.682E-22
  53277.160     3.724E-22
  53277.228     3.767E-22
  53277.297     3.824E-22
  53277.365     3.889E-22
  53277.433     3.951E-22
  53277.501     4.013E-22
  53277.569     4.063E-22
  53277.637     4.113E-22
  53277.706     4.178E-22
  53277.775     4.263E-22
  53277.844     4.349E-22
  53277.914     4.429E-22
  53277.983     4.538E-22
  53278.052     4.662E-22
  53278.122     4.774E-22
  53278.191     4.906E-22
  53278.260     5.056E-22
  53278.329     5.208E-22
  53278.398     5.348E-22
  53278.468     5.490E-22
  53278.537     5.643E-22
  53278.606     5.834E-22
  53278.675     6.071E-22
  53278.744     6.318E-22
  53278.813     6.518E-22
  53278.883     6.743E-22
  53278.952     6.994E-22
  53279.022     7.265E-22
  53279.091     7.586E-22
  53279.160     7.871E-22
  53279.229     8.249E-22
  53279.297     8.567E-22
  53279.365     8.956E-22
  53279.433     9.415E-22
  53279.501     1.001E-21
  53279.569     1.057E-21
  53279.637     1.094E-21
  53279.705     1.133E-21
  53279.773     1.194E-21
  53279.841     1.257E-21
  53279.909     1.339E-21
  53279.977     1.396E-21
  53280.045     1.471E-21
  53280.113     1.583E-21
  53280.181     1.696E-21
  53280.249     1.803E-21
  53280.317     1.941E-21
  53280.385     2.098E-21
  53280.453     2.268E-21
  53280.521     2.434E-21
  53280.589     2.591E-21
  53280.657     2.769E-21
  53280.725     3.024E-21
  53280.793     3.327E-21
  53280.861     3.653E-21
  53280.929     4.079E-21
  53280.997     4.374E-21
  53281.065     4.735E-21
  53281.133     5.079E-21
  53281.201     5.342E-21
  53281.269     5.622E-21
  53281.338     5.888E-21
  53281.406     6.035E-21
  53281.474     6.014E-21
  53281.542     5.994E-21
  53281.610     5.812E-21
  53281.678     5.677E-21
  53281.746     5.519E-21
  53281.814     5.477E-21
  53281.882     5.425E-21
  53281.950     5.280E-21
  53282.018     5.097E-21
  53282.086     4.943E-21
  53282.154     4.764E-21
  53282.222     4.672E-21
  53282.290     4.613E-21
  53282.358     4.452E-21
  53282.426     4.442E-21
  53282.494     4.382E-21
  53282.562     4.124E-21
  53282.630     3.970E-21
  53282.698     3.854E-21
  53282.766     3.768E-21
  53282.834     3.726E-21
  53282.902     3.644E-21
  53282.970     3.539E-21
  53283.038     3.430E-21
  53283.106     3.341E-21
  53283.174     3.248E-21
  53283.242     3.186E-21
  53283.310     3.101E-21
  53283.379     3.050E-21
  53283.447     2.983E-21
  53283.518     2.971E-21
  53283.648     2.959E-21
  53283.718     3.004E-21
  53283.843     3.154E-21
  53283.903     3.250E-21
  53283.975     3.419E-21
  53284.050     3.658E-21
  53284.127     3.919E-21
  53284.207     4.201E-21
  53284.289     4.499E-21
  53284.375     4.775E-21
  53284.457     4.956E-21
  53284.540     5.208E-21
  53284.622     5.510E-21
  53284.709     5.872E-21
  53284.787     6.279E-21
  53284.874     6.744E-21
  53284.956     7.300E-21
  53285.039     7.914E-21
  53285.121     8.532E-21
  53285.204     9.127E-21
  53285.286     9.680E-21
  53285.358     1.023E-20
  53285.440     1.092E-20
  53285.523     1.165E-20
  53285.605     1.208E-20
  53285.688     1.191E-20
  53285.770     1.139E-20
  53285.853     1.090E-20
  53285.935     1.066E-20
  53286.017     1.065E-20
  53286.100     1.061E-20
  53286.182     1.022E-20
  53286.265     9.617E-21
  53286.358     9.084E-21
  53286.440     8.640E-21
  53286.523     8.197E-21
  53286.605     7.762E-21
  53286.688     7.412E-21
  53286.765     7.125E-21
  53286.852     6.831E-21
  53286.930     6.438E-21
  53287.013     5.983E-21
  53287.095     5.606E-21
  53287.178     5.345E-21
  53287.260     5.135E-21
  53287.342     4.860E-21
  53287.425     4.512E-21
  53287.510     4.131E-21
  53287.592     3.818E-21
  53287.669     3.499E-21
  53287.791     3.140E-21
  53287.867     2.924E-21
  53287.939     2.762E-21
  53288.142     2.366E-21
  53288.346     2.034E-21
  53288.414     1.963E-21
  53288.482     1.878E-21
  53288.550     1.788E-21
  53288.618     1.696E-21
  53288.686     1.628E-21
  53288.754     1.560E-21
  53288.822     1.497E-21
  53288.890     1.431E-21
  53288.958     1.394E-21
  53289.026     1.335E-21
  53289.094     1.295E-21
  53289.162     1.257E-21
  53289.230     1.199E-21
  53289.298     1.154E-21
  53289.366     1.113E-21
  53289.434     1.086E-21
  53289.502     1.031E-21
  53289.571     1.001E-21
  53289.639     9.576E-22
  53289.707     9.190E-22
  53289.775     8.884E-22
  53289.843     8.515E-22
  53289.911     8.293E-22
  53289.979     8.119E-22
  53290.047     7.844E-22
  53290.115     7.644E-22
  53290.183     7.484E-22
  53290.251     7.339E-22
  53290.319     7.187E-22
  53290.387     7.025E-22
  53290.455     6.793E-22
  53290.523     6.519E-22
  53290.591     6.356E-22
  53290.659     6.244E-22
  53290.727     6.025E-22
  53290.795     5.932E-22
  53290.863     5.829E-22
  53290.932     5.688E-22
  53291.000     5.517E-22
  53291.068     5.372E-22
  53291.136     5.201E-22
  53291.203     5.065E-22
  53291.271     4.941E-22
  53291.340     4.853E-22
  53291.408     4.765E-22
  53291.476     4.660E-22
  53291.544     4.578E-22
  53291.612     4.479E-22
  53291.680     4.369E-22
  53291.749     4.270E-22
  53291.817     4.143E-22
  53291.885     4.030E-22
  53291.953     3.950E-22
  53292.021     3.887E-22
  53292.089     3.837E-22
  53292.158     3.776E-22
  53292.226     3.700E-22
  53292.294     3.627E-22
  53292.362     3.563E-22
  53292.430     3.512E-22
  53292.498     3.463E-22
  53292.567     3.411E-22
  53292.635     3.350E-22
  53292.703     3.283E-22
  53292.771     3.213E-22
  53292.839     3.141E-22
  53292.907     3.075E-22
  53292.976     3.009E-22
  53293.044     2.956E-22
  53293.112     2.906E-22
  53293.180     2.849E-22
  53293.248     2.798E-22
  53293.316     2.757E-22
  53293.385     2.721E-22
  53293.453     2.686E-22
  53293.521     2.654E-22
  53293.589     2.626E-22
  53293.657     2.600E-22
  53293.725     2.567E-22
  53293.794     2.524E-22
  53293.862     2.472E-22
  53293.930     2.424E-22
  53293.998     2.390E-22
  53294.066     2.372E-22
  53294.134     2.354E-22
  53294.203     2.328E-22
  53294.271     2.291E-22
  53294.339     2.251E-22
  53294.407     2.226E-22
  53294.475     2.210E-22
  53294.544     2.210E-22
  53294.612     2.207E-22
  53294.680     2.186E-22
  53294.748     2.153E-22
  53294.816     2.115E-22
  53294.884     2.079E-22
  53294.953     2.047E-22
  53295.021     2.018E-22
  53295.089     1.992E-22
  53295.157     1.975E-22
  53295.225     1.960E-22
  53295.293     1.944E-22
  53295.362     1.923E-22
  53295.430     1.899E-22
  53295.498     1.874E-22
  53295.566     1.853E-22
  53295.634     1.837E-22
  53295.702     1.831E-22
  53295.771     1.825E-22
  53295.839     1.818E-22
  53295.907     1.807E-22
  53295.975     1.795E-22
  53296.043     1.780E-22
  53296.111     1.764E-22
  53296.180     1.754E-22
  53296.248     1.750E-22
  53296.316     1.741E-22
  53296.384     1.718E-22
  53296.452     1.688E-22
  53296.520     1.666E-22
  53296.589     1.652E-22
  53296.657     1.646E-22
  53296.725     1.644E-22
  53296.793     1.633E-22
  53296.861     1.612E-22
  53296.929     1.585E-22
  53296.998     1.563E-22
  53297.066     1.548E-22
  53297.134     1.535E-22
  53297.202     1.521E-22
  53297.270     1.509E-22
  53297.338     1.496E-22
  53297.407     1.481E-22
  53297.475     1.469E-22
  53297.543     1.460E-22
  53297.611     1.454E-22
  53297.679     1.450E-22
  53297.747     1.446E-22
  53297.816     1.437E-22
  53297.884     1.428E-22
  53297.952     1.426E-22
  53298.020     1.424E-22
  53298.088     1.420E-22
  53298.156     1.418E-22
  53298.225     1.420E-22
  53298.293     1.421E-22
  53298.361     1.414E-22
  53298.429     1.403E-22
  53298.497     1.384E-22
  53298.565     1.366E-22
  53298.634     1.351E-22
  53298.702     1.336E-22
  53298.770     1.329E-22
  53298.838     1.322E-22
  53298.906     1.314E-22
  53298.974     1.309E-22
  53299.043     1.302E-22
  53299.111     1.300E-22
  53299.179     1.299E-22
  53299.247     1.297E-22
  53299.315     1.292E-22
  53299.383     1.280E-22
  53299.452     1.269E-22
  53299.520     1.261E-22
  53299.588     1.253E-22
  53299.656     1.248E-22
  53299.724     1.244E-22
  53299.792     1.243E-22
  53299.861     1.239E-22
  53299.929     1.235E-22
  53299.997     1.235E-22
  53300.065     1.236E-22
  53300.133     1.239E-22
  53300.202     1.243E-22
  53300.270     1.243E-22
  53300.338     1.237E-22
  53300.406     1.228E-22
  53300.474     1.222E-22
  53300.542     1.217E-22
  53300.611     1.214E-22
  53300.679     1.207E-22
  53300.747     1.196E-22
  53300.815     1.188E-22
  53300.883     1.181E-22
  53300.951     1.176E-22
  53301.020     1.173E-22
  53301.088     1.172E-22
  53301.156     1.173E-22
  53301.224     1.169E-22
  53301.292     1.160E-22
  53301.361     1.151E-22
  53301.430     1.143E-22
  53301.498     1.137E-22
  53301.566     1.133E-22
  53301.634     1.125E-22
  53301.702     1.118E-22
  53301.770     1.114E-22
  53301.839     1.110E-22
  53301.907     1.109E-22
  53301.975     1.109E-22
  53302.044     1.108E-22
  53302.112     1.106E-22
  53302.180     1.104E-22
  53302.249     1.101E-22
  53302.317     1.096E-22
  53302.385     1.092E-22
  53302.453     1.089E-22
  53302.521     1.086E-22
  53302.589     1.082E-22
  53302.658     1.078E-22
  53302.727     1.076E-22
  53302.795     1.072E-22
  53302.863     1.068E-22
  53302.931     1.065E-22
  53302.999     1.067E-22
  53303.068     1.070E-22
  53303.136     1.071E-22
  53303.204     1.075E-22
  53303.272     1.080E-22
  53303.340     1.088E-22
  53303.409     1.093E-22
  53303.478     1.096E-22
  53303.546     1.099E-22
  53303.614     1.102E-22
  53303.682     1.105E-22
  53303.750     1.108E-22
  53303.818     1.113E-22
  53303.887     1.122E-22
  53303.955     1.132E-22
  53304.024     1.141E-22
  53304.092     1.146E-22
  53304.160     1.147E-22
  53304.228     1.145E-22
  53304.297     1.146E-22
  53304.365     1.145E-22
  53304.433     1.144E-22
  53304.501     1.143E-22
  53304.569     1.143E-22
  53304.638     1.144E-22
  53304.707     1.143E-22
  53304.775     1.142E-22
  53304.843     1.143E-22
  53304.911     1.146E-22
  53304.979     1.152E-22
  53305.048     1.158E-22
  53305.116     1.160E-22
  53305.184     1.159E-22
  53305.252     1.160E-22
  53305.320     1.162E-22
  53305.389     1.162E-22
  53305.457     1.162E-22
  53305.526     1.161E-22
  53305.594     1.158E-22
  53305.662     1.156E-22
  53305.730     1.153E-22
  53305.799     1.148E-22
  53305.867     1.142E-22
  53305.935     1.138E-22
  53306.003     1.137E-22
  53306.072     1.139E-22
  53306.140     1.140E-22
  53306.208     1.143E-22
  53306.277     1.149E-22
  53306.345     1.154E-22
  53306.413     1.158E-22
  53306.481     1.161E-22
  53306.550     1.165E-22
  53306.618     1.175E-22
  53306.686     1.185E-22
  53306.755     1.196E-22
  53306.823     1.202E-22
  53306.891     1.203E-22
  53306.960     1.204E-22
  53307.028     1.204E-22
  53307.096     1.202E-22
  53307.164     1.198E-22
  53307.232     1.192E-22
  53307.300     1.185E-22
  53307.369     1.178E-22
  53307.437     1.174E-22
  53307.506     1.175E-22
  53307.574     1.177E-22
  53307.642     1.179E-22
  53307.711     1.179E-22
  53307.779     1.174E-22
  53307.847     1.166E-22
  53307.915     1.159E-22
  53307.983     1.151E-22
  53308.052     1.143E-22
  53308.121     1.136E-22
  53308.189     1.130E-22
  53308.257     1.123E-22
  53308.325     1.111E-22
  53308.393     1.097E-22
  53308.461     1.088E-22
  53308.530     1.083E-22
  53308.598     1.082E-22
  53308.666     1.075E-22
  53308.735     1.065E-22
  53308.803     1.058E-22
  53308.872     1.057E-22
  53308.940     1.058E-22
  53309.008     1.062E-22
  53309.076     1.065E-22
  53309.144     1.064E-22
  53309.212     1.064E-22
  53309.281     1.061E-22
  53309.349     1.054E-22
  53309.417     1.040E-22
  53309.485     1.027E-22
  53309.553     1.018E-22
  53309.621     1.011E-22
  53309.690     1.003E-22
  53309.758     9.952E-23
  53309.826     9.912E-23
  53309.894     9.895E-23
  53309.962     9.902E-23
  53310.031     9.957E-23
  53310.099     1.005E-22
  53310.167     1.014E-22
  53310.235     1.022E-22
  53310.303     1.026E-22
  53310.371     1.027E-22
  53310.440     1.023E-22
  53310.508     1.017E-22
  53310.576     1.014E-22
  53310.644     1.014E-22
  53310.712     1.018E-22
  53310.780     1.023E-22
  53310.849     1.029E-22
  53310.917     1.036E-22
  53310.985     1.041E-22
  53311.053     1.043E-22
  53311.121     1.045E-22
  53311.190     1.046E-22
  53311.258     1.046E-22
  53311.326     1.046E-22
  53311.394     1.050E-22
  53311.462     1.057E-22
  53311.530     1.064E-22
  53311.599     1.075E-22
  53311.667     1.087E-22
  53311.735     1.097E-22
  53311.803     1.106E-22
  53311.871     1.114E-22
  53311.939     1.122E-22
  53312.008     1.130E-22
  53312.076     1.145E-22
  53312.144     1.164E-22
  53312.212     1.182E-22
  53312.280     1.203E-22
  53312.349     1.226E-22
  53312.417     1.250E-22
  53312.485     1.273E-22
  53312.553     1.292E-22
  53312.621     1.304E-22
  53312.689     1.315E-22
  53312.758     1.333E-22
  53312.826     1.353E-22
  53312.894     1.372E-22
  53312.962     1.390E-22
  53313.030     1.409E-22
  53313.098     1.426E-22
  53313.167     1.442E-22
  53313.235     1.456E-22
  53313.303     1.466E-22
  53313.371     1.475E-22
  53313.439     1.481E-22
  53313.507     1.482E-22
  53313.576     1.489E-22
  53313.644     1.488E-22
  53313.712     1.485E-22
  53313.780     1.486E-22
  53313.848     1.491E-22
  53313.917     1.502E-22
  53313.985     1.518E-22
  53314.053     1.533E-22
  53314.121     1.544E-22
  53314.189     1.554E-22
  53314.257     1.568E-22
  53314.326     1.581E-22
  53314.394     1.585E-22
  53314.462     1.584E-22
  53314.530     1.584E-22
  53314.598     1.580E-22
  53314.666     1.574E-22
  53314.735     1.570E-22
  53314.803     1.574E-22
  53314.871     1.589E-22
  53314.939     1.608E-22
  53315.007     1.622E-22
  53315.076     1.621E-22
  53315.144     1.607E-22
  53315.212     1.582E-22
  53315.280     1.556E-22
  53315.348     1.537E-22
  53315.416     1.525E-22
  53315.485     1.517E-22
  53315.553     1.508E-22
  53315.621     1.501E-22
  53315.689     1.497E-22
  53315.757     1.484E-22
  53315.825     1.465E-22
  53315.894     1.446E-22
  53315.962     1.425E-22
  53316.030     1.402E-22
  53316.098     1.376E-22
  53316.166     1.356E-22
  53316.235     1.341E-22
  53316.303     1.330E-22
  53316.371     1.317E-22
  53316.439     1.303E-22
  53316.507     1.292E-22
  53316.575     1.280E-22
  53316.644     1.269E-22
  53316.712     1.262E-22
  53316.780     1.258E-22
  53316.848     1.252E-22
  53316.916     1.242E-22
  53316.984     1.233E-22
  53317.053     1.227E-22
  53317.121     1.224E-22
  53317.189     1.223E-22
  53317.257     1.222E-22
  53317.325     1.222E-22
  53317.394     1.219E-22
  53317.462     1.209E-22
  53317.530     1.195E-22
  53317.598     1.182E-22
  53317.666     1.176E-22
  53317.734     1.173E-22
  53317.803     1.174E-22
  53317.871     1.176E-22
  53317.939     1.178E-22
  53318.007     1.180E-22
  53318.075     1.180E-22
  53318.143     1.182E-22
  53318.212     1.187E-22
  53318.280     1.190E-22
  53318.348     1.189E-22
  53318.416     1.185E-22
  53318.484     1.182E-22
  53318.552     1.185E-22
  53318.621     1.192E-22
  53318.689     1.201E-22
  53318.757     1.212E-22
  53318.825     1.221E-22
  53318.893     1.229E-22
  53318.962     1.235E-22
  53319.030     1.239E-22
  53319.098     1.247E-22
  53319.166     1.255E-22
  53319.234     1.265E-22
  53319.302     1.274E-22
  53319.371     1.280E-22
  53319.439     1.285E-22
  53319.507     1.290E-22
  53319.575     1.295E-22
  53319.643     1.303E-22
  53319.711     1.316E-22
  53319.780     1.327E-22
  53319.848     1.337E-22
  53319.916     1.344E-22
  53319.984     1.351E-22
  53320.052     1.361E-22
  53320.121     1.370E-22
  53320.189     1.380E-22
  53320.257     1.392E-22
  53320.325     1.415E-22
  53320.393     1.438E-22
  53320.461     1.461E-22
  53320.530     1.484E-22
  53320.598     1.510E-22
  53320.666     1.533E-22
  53320.734     1.555E-22
  53320.802     1.576E-22
  53320.870     1.603E-22
  53320.939     1.634E-22
  53321.007     1.668E-22
  53321.075     1.703E-22
  53321.143     1.738E-22
  53321.211     1.780E-22
  53321.279     1.835E-22
  53321.348     1.896E-22
  53321.416     1.962E-22
  53321.484     2.033E-22
  53321.552     2.113E-22
  53321.619     2.196E-22
  53321.687     2.295E-22
  53321.754     2.404E-22
  53321.820     2.517E-22
  53321.887     2.603E-22
  53321.954     2.686E-22
  53322.021     2.807E-22
  53322.088     2.980E-22
  53322.155     3.193E-22
  53322.222     3.442E-22
  53322.289     3.541E-22
  53322.356     3.703E-22
  53322.423     4.006E-22
  53322.558     4.828E-22
  53322.626     5.365E-22
  53322.694     6.000E-22
  53322.762     6.700E-22
  53322.830     7.512E-22
  53322.898     8.430E-22
  53322.966     9.268E-22
  53323.034     1.024E-21
  53323.102     1.097E-21
  53323.170     1.165E-21
  53323.238     1.202E-21
  53323.306     1.221E-21
  53323.374     1.223E-21
  53323.442     1.215E-21
  53323.510     1.212E-21
  53323.579     1.200E-21
  53323.647     1.194E-21
  53323.715     1.193E-21
  53323.783     1.200E-21
  53323.851     1.190E-21
  53323.919     1.195E-21
  53323.987     1.196E-21
  53324.055     1.174E-21
  53324.123     1.148E-21
  53324.191     1.097E-21
  53324.259     1.049E-21
  53324.327     1.008E-21
  53324.395     9.773E-22
  53324.463     9.233E-22
  53324.531     8.686E-22
  53324.599     8.073E-22
  53324.668     7.425E-22
  53324.736     6.894E-22
  53324.806     6.294E-22
  53324.875     5.751E-22
  53324.944     5.298E-22
  53325.014     4.968E-22
  53325.083     4.603E-22
  53325.153     4.250E-22
  53325.223     3.931E-22
  53325.293     3.688E-22
  53325.362     3.472E-22
  53325.432     3.276E-22
  53325.501     3.120E-22
  53325.572     2.977E-22
  53325.641     2.853E-22
  53325.711     2.745E-22
  53325.779     2.637E-22
  53325.847     2.527E-22
  53325.915     2.423E-22
  53325.984     2.328E-22
  53326.052     2.255E-22
  53326.120     2.199E-22
  53326.188     2.159E-22
  53326.256     2.119E-22
  53326.324     2.079E-22
  53326.393     2.040E-22
  53326.461     2.007E-22
  53326.529     1.978E-22
  53326.597     1.948E-22
  53326.665     1.921E-22
  53326.733     1.888E-22
  53326.802     1.852E-22
  53326.870     1.820E-22
  53326.938     1.800E-22
  53327.006     1.785E-22
  53327.074     1.775E-22
  53327.143     1.767E-22
  53327.211     1.759E-22
  53327.279     1.750E-22
  53327.347     1.733E-22
  53327.415     1.716E-22
  53327.483     1.703E-22
  53327.552     1.692E-22
  53327.620     1.688E-22
  53327.688     1.689E-22
  53327.756     1.690E-22
  53327.824     1.697E-22
  53327.892     1.702E-22
  53327.961     1.706E-22
  53328.029     1.703E-22
  53328.097     1.690E-22
  53328.165     1.676E-22
  53328.233     1.665E-22
  53328.301     1.665E-22
  53328.370     1.673E-22
  53328.438     1.682E-22
  53328.506     1.695E-22
  53328.574     1.705E-22
  53328.642     1.716E-22
  53328.711     1.724E-22
  53328.779     1.725E-22
  53328.847     1.729E-22
  53328.915     1.740E-22
  53328.983     1.754E-22
  53329.051     1.763E-22
  53329.120     1.764E-22
  53329.188     1.767E-22
  53329.256     1.775E-22
  53329.324     1.790E-22
  53329.392     1.808E-22
  53329.460     1.828E-22
  53329.529     1.845E-22
  53329.597     1.860E-22
  53329.665     1.880E-22
  53329.733     1.902E-22
  53329.801     1.927E-22
  53329.869     1.949E-22
  53329.938     1.963E-22
  53330.006     1.975E-22
  53330.074     1.986E-22
  53330.142     1.997E-22
  53330.210     2.006E-22
  53330.279     2.015E-22
  53330.347     2.032E-22
  53330.415     2.055E-22
  53330.483     2.088E-22
  53330.551     2.117E-22
  53330.619     2.161E-22
  53330.688     2.231E-22
  53330.756     2.310E-22
  53330.824     2.395E-22
  53330.892     2.473E-22
  53330.960     2.532E-22
  53331.028     2.579E-22
  53331.097     2.623E-22
  53331.165     2.658E-22
  53331.233     2.686E-22
  53331.301     2.723E-22
  53331.369     2.773E-22
  53331.437     2.832E-22
  53331.574     2.977E-22
  53331.640     3.051E-22
  53331.706     3.128E-22
  53331.771     3.215E-22
  53331.838     3.316E-22
  53331.904     3.420E-22
  53331.969     3.500E-22
  53332.035     3.588E-22
  53332.101     3.718E-22
  53332.166     3.828E-22
  53332.232     4.029E-22
  53332.298     4.315E-22
  53332.364     4.545E-22
  53332.429     4.716E-22
  53332.564     5.189E-22
  53332.632     5.625E-22
  53332.700     6.220E-22
  53332.768     6.785E-22
  53332.836     7.338E-22
  53332.904     7.939E-22
  53332.972     8.681E-22
  53333.040     9.528E-22
  53333.108     1.061E-21
  53333.176     1.170E-21
  53333.244     1.275E-21
  53333.313     1.382E-21
  53333.381     1.464E-21
  53333.449     1.547E-21
  53333.517     1.638E-21
  53333.585     1.675E-21
  53333.653     1.734E-21
  53333.721     1.779E-21
  53333.789     1.817E-21
  53333.857     1.846E-21
  53333.925     1.826E-21
  53333.993     1.791E-21
  53334.061     1.752E-21
  53334.130     1.745E-21
  53334.198     1.737E-21
  53334.266     1.704E-21
  53334.334     1.636E-21
  53334.402     1.560E-21
  53334.470     1.478E-21
  53334.538     1.362E-21
  53334.606     1.280E-21
  53334.674     1.194E-21
  53334.742     1.111E-21
  53334.810     1.042E-21
  53334.878     9.731E-22
  53334.947     8.889E-22
  53335.015     8.149E-22
  53335.083     7.547E-22
  53335.151     7.206E-22
  53335.219     6.825E-22
  53335.287     6.472E-22
  53335.355     6.003E-22
  53335.423     5.516E-22
  53335.491     5.133E-22
  53335.559     4.922E-22
  53335.625     4.797E-22
  53335.691     4.745E-22
  53335.757     4.686E-22
  53335.823     4.577E-22
  53335.889     4.458E-22
  53335.955     4.301E-22
  53336.021     4.165E-22
  53336.086     4.077E-22
  53336.152     3.975E-22
  53336.219     3.928E-22
  53336.284     3.899E-22
  53336.350     3.816E-22
  53336.416     3.737E-22
  53336.550     3.642E-22
  53336.619     3.612E-22
  53336.687     3.575E-22
  53336.755     3.550E-22
  53336.823     3.539E-22
  53336.891     3.532E-22
  53336.960     3.524E-22
  53337.028     3.503E-22
  53337.096     3.474E-22
  53337.164     3.457E-22
  53337.232     3.446E-22
  53337.300     3.427E-22
  53337.369     3.408E-22
  53337.437     3.401E-22
  53337.505     3.403E-22
  53337.573     3.402E-22
  53337.641     3.401E-22
  53337.709     3.413E-22
  53337.778     3.432E-22
  53337.846     3.460E-22
  53337.914     3.490E-22
  53337.982     3.503E-22
  53338.050     3.493E-22
  53338.118     3.468E-22
  53338.187     3.439E-22
  53338.255     3.430E-22
  53338.323     3.455E-22
  53338.391     3.502E-22
  53338.459     3.551E-22
  53338.528     3.601E-22
  53338.596     3.658E-22
  53338.664     3.711E-22
  53338.732     3.756E-22
  53338.800     3.802E-22
  53338.868     3.836E-22
  53338.937     3.855E-22
  53339.005     3.878E-22
  53339.074     3.926E-22
  53339.143     3.970E-22
  53339.213     4.017E-22
  53339.282     4.090E-22
  53339.352     4.171E-22
  53339.421     4.228E-22
  53339.491     4.314E-22
  53339.560     4.374E-22
  53339.629     4.391E-22
  53339.698     4.474E-22
  53339.768     4.585E-22
  53339.837     4.694E-22
  53339.906     4.752E-22
  53339.976     4.809E-22
  53340.045     4.919E-22
  53340.114     4.984E-22
  53340.184     5.071E-22
  53340.253     5.211E-22
  53340.322     5.246E-22
  53340.392     5.292E-22
  53340.461     5.397E-22
  53340.530     5.503E-22
  53340.598     5.484E-22
  53340.666     5.555E-22
  53340.734     5.675E-22
  53340.802     5.864E-22
  53340.870     5.991E-22
  53340.939     6.121E-22
  53341.007     6.030E-22
  53341.075     6.250E-22
  53341.143     6.444E-22
  53341.211     6.501E-22
  53341.279     6.636E-22
  53341.347     6.726E-22
  53341.415     6.854E-22
  53341.483     7.027E-22
  53341.551     7.260E-22
  53341.620     7.420E-22
  53341.688     7.568E-22
  53341.756     7.761E-22
  53341.824     7.982E-22
  53341.892     8.149E-22
  53341.960     8.091E-22
  53342.028     8.271E-22
  53342.096     8.461E-22
  53342.164     8.711E-22
  53342.232     9.234E-22
  53342.301     9.604E-22
  53342.369     9.614E-22
  53342.437     9.903E-22
  53342.505     1.005E-21
  53342.573     1.034E-21
  53342.641     1.054E-21
  53342.709     1.079E-21
  53342.777     1.109E-21
  53342.845     1.148E-21
  53342.913     1.166E-21
  53342.982     1.205E-21
  53343.050     1.233E-21
  53343.118     1.266E-21
  53343.186     1.306E-21
  53343.254     1.356E-21
  53343.322     1.412E-21
  53343.390     1.477E-21
  53343.458     1.521E-21
  53343.526     1.575E-21
  53343.595     1.690E-21
  53343.664     1.826E-21
  53343.735     1.984E-21
  53343.861     2.189E-21
  53343.931     2.353E-21
  53343.994     2.548E-21
  53344.066     2.778E-21
  53344.140     3.055E-21
  53344.215     3.396E-21
  53344.291     3.800E-21
  53344.398     4.443E-21
  53344.473     5.094E-21
  53344.554     5.771E-21
  53344.629     6.453E-21
  53344.713     7.142E-21
  53344.807     7.924E-21
  53344.886     8.751E-21
  53344.958     9.657E-21
  53345.040     1.058E-20
  53345.122     1.115E-20
  53345.205     1.139E-20
  53345.287     1.136E-20
  53345.369     1.132E-20
  53345.451     1.128E-20
  53345.533     1.102E-20
  53345.616     1.057E-20
  53345.698     1.007E-20
  53345.790     9.740E-21
  53345.862     9.513E-21
  53345.954     9.266E-21
  53346.036     8.998E-21
  53346.119     8.661E-21
  53346.201     8.322E-21
  53346.283     8.109E-21
  53346.365     7.920E-21
  53346.447     7.597E-21
  53346.530     7.236E-21
  53346.612     6.993E-21
  53346.689     6.855E-21
  53346.771     6.730E-21
  53346.858     6.667E-21
  53346.941     6.663E-21
  53347.018     6.562E-21
  53347.100     6.348E-21
  53347.182     6.266E-21
  53347.264     6.347E-21
  53347.352     6.383E-21
  53347.434     6.288E-21
  53347.516     6.197E-21
  53347.598     6.287E-21
  53347.680     6.543E-21
  53347.757     6.913E-21
  53347.845     7.438E-21
  53347.927     7.969E-21
  53348.009     8.268E-21
  53348.091     8.501E-21
  53348.173     8.960E-21
  53348.246     9.683E-21
  53348.328     1.050E-20
  53348.410     1.131E-20
  53348.492     1.217E-20
  53348.574     1.313E-20
  53348.657     1.403E-20
  53348.739     1.495E-20
  53348.821     1.599E-20
  53348.903     1.688E-20
  53348.985     1.736E-20
  53349.068     1.738E-20
  53349.150     1.725E-20
  53349.232     1.717E-20
  53349.314     1.699E-20
  53349.396     1.663E-20
  53349.478     1.625E-20
  53349.561     1.580E-20
  53349.643     1.532E-20
  53349.725     1.496E-20
  53349.807     1.453E-20
  53349.889     1.383E-20
  53349.972     1.301E-20
  53350.054     1.223E-20
  53350.136     1.151E-20
  53350.218     1.072E-20
  53350.310     1.002E-20
  53350.392     9.507E-21
  53350.475     9.012E-21
  53350.557     8.448E-21
  53350.639     7.830E-21
  53350.721     7.224E-21
  53350.803     6.701E-21
  53350.885     6.219E-21
  53350.962     5.777E-21
  53351.044     5.407E-21
  53351.129     5.096E-21
  53351.211     4.848E-21
  53351.291     4.663E-21
  53351.369     4.432E-21
  53351.447     4.194E-21
  53351.548     3.894E-21
  53351.625     3.739E-21
  53351.713     3.577E-21
  53351.775     3.408E-21
  53351.899     3.184E-21
  53351.973     3.064E-21
  53352.038     2.930E-21
  53352.114     2.781E-21
  53352.242     2.567E-21
  53352.312     2.450E-21
  53352.518     2.196E-21
  53352.586     2.114E-21
  53352.654     2.013E-21
  53352.722     1.942E-21
  53352.790     1.846E-21
  53352.858     1.765E-21
  53352.926     1.697E-21
  53352.994     1.636E-21
  53353.063     1.549E-21
  53353.131     1.493E-21
  53353.199     1.463E-21
  53353.267     1.437E-21
  53353.335     1.409E-21
  53353.403     1.379E-21
  53353.471     1.348E-21
  53353.539     1.308E-21
  53353.608     1.266E-21
  53353.676     1.232E-21
  53353.744     1.188E-21
  53353.812     1.150E-21
  53353.880     1.112E-21
  53353.948     1.081E-21
  53354.016     1.050E-21
  53354.084     1.027E-21
  53354.153     1.007E-21
  53354.221     9.818E-22
  53354.289     9.667E-22
  53354.357     9.407E-22
  53354.425     9.160E-22
  53354.493     8.982E-22
  53354.561     8.775E-22
  53354.629     8.559E-22
  53354.698     8.424E-22
  53354.766     8.286E-22
  53354.834     8.149E-22
  53354.902     8.005E-22
  53354.970     7.772E-22
  53355.038     7.675E-22
  53355.106     7.601E-22
  53355.174     7.388E-22
  53355.243     7.225E-22
  53355.311     7.267E-22
  53355.379     7.237E-22
  53355.447     7.191E-22
  53355.515     7.092E-22
  53355.583     6.977E-22
  53355.651     6.867E-22
  53355.720     6.730E-22
  53355.788     6.653E-22
  53355.856     6.582E-22
  53355.924     6.582E-22
  53355.992     6.534E-22
  53356.060     6.555E-22
  53356.128     6.570E-22
  53356.196     6.545E-22
  53356.265     6.339E-22
  53356.333     6.409E-22
  53356.401     6.367E-22
  53356.469     6.266E-22
  53356.537     6.180E-22
  53356.605     6.095E-22
  53356.673     6.007E-22
  53356.742     6.053E-22
  53356.810     5.913E-22
  53356.878     5.807E-22
  53356.946     5.757E-22
  53357.014     5.791E-22
  53357.082     5.776E-22
  53357.150     5.762E-22
  53357.218     5.850E-22
  53357.287     5.916E-22
  53357.355     5.952E-22
  53357.423     6.030E-22
  53357.491     6.195E-22
  53357.559     6.298E-22
  53357.627     6.300E-22
  53357.695     6.275E-22
  53357.764     6.373E-22
  53357.832     6.479E-22
  53357.900     6.567E-22
  53357.968     6.799E-22
  53358.036     6.895E-22
  53358.104     6.927E-22
  53358.172     6.991E-22
  53358.241     7.138E-22
  53358.309     7.246E-22
  53358.377     7.403E-22
  53358.445     7.582E-22
  53358.513     7.803E-22
  53358.581     8.095E-22
  53358.649     8.251E-22
  53358.717     8.304E-22
  53358.786     8.109E-22
  53358.854     8.026E-22
  53358.922     7.826E-22
  53358.990     7.812E-22
  53359.058     7.891E-22
  53359.126     7.902E-22
  53359.194     7.683E-22
  53359.263     7.460E-22
  53359.331     7.193E-22
  53359.399     7.086E-22
  53359.467     7.180E-22
  53359.535     7.197E-22
  53359.603     7.092E-22
  53359.671     6.840E-22
  53359.740     6.635E-22
  53359.808     6.482E-22
  53359.876     6.402E-22
  53359.944     6.332E-22
  53360.012     6.119E-22
  53360.080     5.857E-22
  53360.147     5.658E-22
  53360.216     5.548E-22
  53360.283     5.486E-22
  53360.350     5.359E-22
  53360.418     5.255E-22
  53360.486     5.209E-22
  53360.553     4.972E-22
  53360.621     4.767E-22
  53360.689     4.670E-22
  53360.757     4.589E-22
  53360.825     4.483E-22
  53360.892     4.371E-22
  53360.960     4.297E-22
  53361.027     4.172E-22
  53361.095     4.050E-22
  53361.163     3.971E-22
  53361.231     3.857E-22
  53361.298     3.738E-22
  53361.366     3.661E-22
  53361.433     3.595E-22
  53361.501     3.515E-22
  53361.570     3.453E-22
  53361.638     3.399E-22
  53361.706     3.352E-22
  53361.774     3.310E-22
  53361.842     3.265E-22
  53361.910     3.212E-22
  53361.979     3.155E-22
  53362.047     3.113E-22
  53362.115     3.081E-22
  53362.183     3.051E-22
  53362.251     3.027E-22
  53362.319     3.019E-22
  53362.388     3.009E-22
  53362.456     2.987E-22
  53362.524     2.954E-22
  53362.592     2.923E-22
  53362.660     2.888E-22
  53362.728     2.846E-22
  53362.797     2.821E-22
  53362.865     2.805E-22
  53362.933     2.785E-22
  53363.001     2.774E-22
  53363.069     2.750E-22
  53363.137     2.729E-22
  53363.206     2.713E-22
  53363.274     2.699E-22
  53363.342     2.691E-22
  53363.410     2.690E-22
  53363.478     2.690E-22
  53363.546     2.682E-22
  53363.615     2.681E-22
  53363.683     2.690E-22
  53363.751     2.693E-22
  53363.819     2.690E-22
  53363.887     2.681E-22
  53363.956     2.676E-22
  53364.024     2.674E-22
  53364.092     2.679E-22
  53364.160     2.692E-22
  53364.228     2.697E-22
  53364.296     2.702E-22
  53364.365     2.706E-22
  53364.433     2.714E-22
  53364.501     2.726E-22
  53364.569     2.734E-22
  53364.637     2.752E-22
  53364.705     2.777E-22
  53364.774     2.803E-22
  53364.842     2.827E-22
  53364.910     2.856E-22
  53364.978     2.890E-22
  53365.046     2.937E-22
  53365.114     2.994E-22
  53365.183     3.057E-22
  53365.251     3.129E-22
  53365.319     3.209E-22
  53365.388     3.316E-22
  53365.457     3.430E-22
  53365.525     3.577E-22
  53365.595     3.729E-22
  53365.663     3.836E-22
  53365.733     3.983E-22
  53365.801     4.127E-22
  53365.870     4.344E-22
  53365.939     4.552E-22
  53366.008     4.826E-22
  53366.076     5.015E-22
  53366.146     5.335E-22
  53366.214     5.804E-22
  53366.282     6.383E-22
  53366.350     6.994E-22
  53366.418     7.655E-22
  53366.486     8.447E-22
  53366.554     9.301E-22
  53366.623     1.029E-21
  53366.691     1.142E-21
  53366.759     1.255E-21
  53366.827     1.364E-21
  53366.895     1.469E-21
  53366.963     1.570E-21
  53367.032     1.659E-21
  53367.100     1.716E-21
  53367.168     1.725E-21
  53367.236     1.719E-21
  53367.304     1.760E-21
  53367.372     1.757E-21
  53367.440     1.708E-21
  53367.509     1.680E-21
  53367.577     1.665E-21
  53367.645     1.655E-21
  53367.713     1.643E-21
  53367.781     1.612E-21
  53367.849     1.600E-21
  53367.918     1.540E-21
  53367.986     1.458E-21
  53368.054     1.409E-21
  53368.122     1.356E-21
  53368.190     1.282E-21
  53368.258     1.206E-21
  53368.327     1.125E-21
  53368.395     1.039E-21
  53368.463     9.552E-22
  53368.531     8.690E-22
  53368.599     8.040E-22
  53368.667     7.401E-22
  53368.736     6.837E-22
  53368.804     6.448E-22
  53368.872     6.101E-22
  53368.940     5.625E-22
  53369.008     5.219E-22
  53369.075     4.906E-22
  53369.143     4.636E-22
  53369.211     4.393E-22
  53369.278     4.197E-22
  53369.346     4.021E-22
  53369.413     3.901E-22
  53369.480     3.798E-22
  53369.548     3.725E-22
  53369.616     3.637E-22
  53369.683     3.541E-22
  53369.751     3.450E-22
  53369.818     3.363E-22
  53369.886     3.266E-22
  53369.954     3.175E-22
  53370.023     3.086E-22
  53370.091     3.007E-22
  53370.159     2.944E-22
  53370.227     2.895E-22
  53370.295     2.848E-22
  53370.363     2.789E-22
  53370.432     2.726E-22
  53370.500     2.675E-22
  53370.568     2.625E-22
  53370.636     2.569E-22
  53370.704     2.532E-22
  53370.772     2.504E-22
  53370.841     2.478E-22
  53370.909     2.467E-22
  53370.977     2.461E-22
  53371.045     2.456E-22
  53371.113     2.443E-22
  53371.181     2.417E-22
  53371.250     2.380E-22
  53371.318     2.341E-22
  53371.386     2.311E-22
  53371.454     2.294E-22
  53371.522     2.291E-22
  53371.591     2.292E-22
  53371.659     2.291E-22
  53371.727     2.298E-22
  53371.795     2.321E-22
  53371.863     2.349E-22
  53371.931     2.383E-22
  53372.000     2.418E-22
  53372.068     2.443E-22
  53372.136     2.471E-22
  53372.204     2.507E-22
  53372.272     2.545E-22
  53372.340     2.570E-22
  53372.409     2.594E-22
  53372.477     2.616E-22
  53372.545     2.642E-22
  53372.613     2.659E-22
  53372.681     2.663E-22
  53372.749     2.668E-22
  53372.818     2.671E-22
  53372.886     2.670E-22
  53372.954     2.677E-22
  53373.022     2.687E-22
  53373.090     2.706E-22
  53373.158     2.733E-22
  53373.227     2.757E-22
  53373.295     2.787E-22
  53373.363     2.832E-22
  53373.431     2.891E-22
  53373.499     2.954E-22
  53373.567     3.029E-22
  53373.636     3.105E-22
  53373.704     3.173E-22
  53373.772     3.233E-22
  53373.840     3.289E-22
  53373.908     3.349E-22
  53373.976     3.428E-22
  53374.045     3.516E-22
  53374.114     3.634E-22
  53374.182     3.770E-22
  53374.251     3.884E-22
  53374.319     3.983E-22
  53374.388     4.105E-22
  53374.458     4.271E-22
  53374.526     4.488E-22
  53374.595     4.697E-22
  53374.664     4.886E-22
  53374.732     4.977E-22
  53374.801     5.223E-22
  53374.870     5.590E-22
  53374.939     5.978E-22
  53375.007     6.459E-22
  53375.075     6.945E-22
  53375.143     7.541E-22
  53375.212     8.183E-22
  53375.280     8.892E-22
  53375.348     9.759E-22
  53375.416     1.072E-21
  53375.484     1.169E-21
  53375.552     1.284E-21
  53375.621     1.416E-21
  53375.689     1.535E-21
  53375.757     1.678E-21
  53375.825     1.778E-21
  53375.893     1.872E-21
  53375.961     1.971E-21
  53376.030     2.023E-21
  53376.098     2.061E-21
  53376.166     2.100E-21
  53376.234     2.112E-21
  53376.302     2.095E-21
  53376.371     2.079E-21
  53376.439     2.055E-21
  53376.507     2.027E-21
  53376.575     1.979E-21
  53376.643     1.919E-21
  53376.711     1.827E-21
  53376.780     1.684E-21
  53376.848     1.560E-21
  53376.916     1.423E-21
  53376.984     1.307E-21
  53377.052     1.200E-21
  53377.121     1.102E-21
  53377.189     1.021E-21
  53377.257     9.315E-22
  53377.325     8.339E-22
  53377.393     7.607E-22
  53377.461     7.010E-22
  53377.530     6.484E-22
  53377.598     5.857E-22
  53377.666     5.356E-22
  53377.734     4.967E-22
  53377.871     4.509E-22
  53377.938     4.373E-22
  53378.006     4.202E-22
  53378.073     4.030E-22
  53378.141     3.923E-22
  53378.208     3.856E-22
  53378.276     3.745E-22
  53378.343     3.646E-22
  53378.410     3.564E-22
  53378.478     3.495E-22
  53378.546     3.412E-22
  53378.613     3.369E-22
  53378.681     3.366E-22
  53378.748     3.317E-22
  53378.816     3.244E-22
  53378.885     3.161E-22
  53378.953     3.071E-22
  53379.021     2.992E-22
  53379.089     2.925E-22
  53379.157     2.869E-22
  53379.225     2.822E-22
  53379.294     2.772E-22
  53379.362     2.728E-22
  53379.430     2.699E-22
  53379.498     2.673E-22
  53379.566     2.645E-22
  53379.634     2.616E-22
  53379.703     2.590E-22
  53379.771     2.560E-22
  53379.839     2.524E-22
  53379.907     2.488E-22
  53379.975     2.454E-22
  53380.043     2.434E-22
  53380.112     2.419E-22
  53380.180     2.402E-22
  53380.248     2.380E-22
  53380.316     2.353E-22
  53380.384     2.337E-22
  53380.452     2.332E-22
  53380.521     2.341E-22
  53380.589     2.363E-22
  53380.657     2.377E-22
  53380.725     2.377E-22
  53380.793     2.366E-22
  53380.861     2.347E-22
  53380.930     2.331E-22
  53380.998     2.321E-22
  53381.066     2.323E-22
  53381.134     2.329E-22
  53381.202     2.330E-22
  53381.270     2.323E-22
  53381.338     2.317E-22
  53381.406     2.300E-22
  53381.474     2.273E-22
  53381.542     2.250E-22
  53381.610     2.226E-22
  53381.678     2.218E-22
  53381.746     2.224E-22
  53381.814     2.225E-22
  53381.882     2.228E-22
  53381.950     2.236E-22
  53382.018     2.240E-22
  53382.085     2.239E-22
  53382.154     2.234E-22
  53382.222     2.234E-22
  53382.290     2.233E-22
  53382.358     2.235E-22
  53382.426     2.228E-22
  53382.494     2.216E-22
  53382.562     2.213E-22
  53382.630     2.212E-22
  53382.698     2.210E-22
  53382.766     2.202E-22
  53382.834     2.192E-22
  53382.901     2.184E-22
  53382.970     2.174E-22
  53383.038     2.167E-22
  53383.106     2.161E-22
  53383.174     2.152E-22
  53383.242     2.141E-22
  53383.310     2.124E-22
  53383.378     2.109E-22
  53383.446     2.103E-22
  53383.514     2.106E-22
  53383.582     2.114E-22
  53383.650     2.119E-22
  53383.718     2.115E-22
  53383.786     2.109E-22
  53383.854     2.101E-22
  53383.922     2.092E-22
  53383.990     2.085E-22
  53384.058     2.075E-22
  53384.126     2.069E-22
  53384.194     2.062E-22
  53384.262     2.055E-22
  53384.330     2.053E-22
  53384.398     2.055E-22
  53384.466     2.055E-22
  53384.534     2.054E-22
  53384.602     2.051E-22
  53384.670     2.048E-22
  53384.738     2.046E-22
  53384.806     2.044E-22
  53384.874     2.040E-22
  53384.943     2.033E-22
  53385.010     2.026E-22
  53385.078     2.025E-22
  53385.146     2.029E-22
  53385.214     2.033E-22
  53385.282     2.036E-22
  53385.351     2.038E-22
  53385.418     2.038E-22
  53385.486     2.038E-22
  53385.554     2.039E-22
  53385.622     2.036E-22
  53385.690     2.025E-22
  53385.758     2.010E-22
  53385.826     2.000E-22
  53385.894     1.999E-22
  53385.962     2.004E-22
  53386.030     2.011E-22
  53386.098     2.019E-22
  53386.167     2.027E-22
  53386.234     2.034E-22
  53386.302     2.040E-22
  53386.370     2.044E-22
  53386.438     2.052E-22
  53386.506     2.072E-22
  53386.574     2.098E-22
  53386.642     2.114E-22
  53386.710     2.120E-22
  53386.778     2.126E-22
  53386.846     2.126E-22
  53386.915     2.123E-22
  53386.982     2.129E-22
  53387.050     2.137E-22
  53387.118     2.143E-22
  53387.186     2.145E-22
  53387.254     2.148E-22
  53387.323     2.153E-22
  53387.390     2.159E-22
  53387.458     2.164E-22
  53387.526     2.171E-22
  53387.594     2.185E-22
  53387.663     2.202E-22
  53387.731     2.209E-22
  53387.798     2.209E-22
  53387.866     2.201E-22
  53387.934     2.188E-22
  53388.002     2.176E-22
  53388.071     2.174E-22
  53388.139     2.182E-22
  53388.207     2.184E-22
  53388.275     2.176E-22
  53388.343     2.173E-22
  53388.411     2.185E-22
  53388.480     2.212E-22
  53388.548     2.250E-22
  53388.616     2.289E-22
  53388.684     2.318E-22
  53388.752     2.331E-22
  53388.820     2.325E-22
  53388.889     2.315E-22
  53388.957     2.314E-22
  53389.025     2.321E-22
  53389.093     2.332E-22
  53389.161     2.339E-22
  53389.229     2.339E-22
  53389.298     2.357E-22
  53389.366     2.385E-22
  53389.434     2.410E-22
  53389.502     2.431E-22
  53389.570     2.448E-22
  53389.638     2.464E-22
  53389.707     2.472E-22
  53389.775     2.473E-22
  53389.843     2.471E-22
  53389.911     2.476E-22
  53389.979     2.485E-22
  53390.048     2.492E-22
  53390.116     2.505E-22
  53390.184     2.522E-22
  53390.252     2.527E-22
  53390.320     2.532E-22
  53390.388     2.539E-22
  53390.457     2.542E-22
  53390.525     2.552E-22
  53390.593     2.579E-22
  53390.661     2.619E-22
  53390.729     2.652E-22
  53390.797     2.672E-22
  53390.866     2.692E-22
  53390.934     2.716E-22
  53391.002     2.735E-22
  53391.070     2.746E-22
  53391.138     2.760E-22
  53391.206     2.772E-22
  53391.275     2.781E-22
  53391.343     2.784E-22
  53391.411     2.805E-22
  53391.479     2.829E-22
  53391.547     2.856E-22
  53391.615     2.883E-22
  53391.684     2.912E-22
  53391.752     2.930E-22
  53391.820     2.935E-22
  53391.888     2.947E-22
  53391.956     2.972E-22
  53392.025     3.006E-22
  53392.093     3.039E-22
  53392.161     3.068E-22
  53392.229     3.098E-22
  53392.297     3.131E-22
  53392.365     3.160E-22
  53392.434     3.182E-22
  53392.502     3.195E-22
  53392.570     3.210E-22
  53392.638     3.226E-22
  53392.706     3.246E-22
  53392.774     3.274E-22
  53392.843     3.308E-22
  53392.911     3.346E-22
  53392.979     3.372E-22
  53393.047     3.392E-22
  53393.115     3.395E-22
  53393.183     3.408E-22
  53393.252     3.440E-22
  53393.320     3.481E-22
  53393.388     3.528E-22
  53393.456     3.574E-22
  53393.524     3.613E-22
  53393.592     3.649E-22
  53393.661     3.680E-22
  53393.729     3.708E-22
  53393.797     3.730E-22
  53393.865     3.760E-22
  53393.933     3.798E-22
  53394.001     3.840E-22
  53394.070     3.890E-22
  53394.138     3.932E-22
  53394.206     3.962E-22
  53394.274     3.997E-22
  53394.342     4.036E-22
  53394.411     4.077E-22
  53394.479     4.123E-22
  53394.547     4.169E-22
  53394.615     4.213E-22
  53394.683     4.262E-22
  53394.751     4.313E-22
  53394.820     4.353E-22
  53394.888     4.368E-22
  53394.956     4.368E-22
  53395.024     4.373E-22
  53395.091     4.393E-22
  53395.158     4.434E-22
  53395.226     4.490E-22
  53395.293     4.566E-22
  53395.360     4.633E-22
  53395.427     4.724E-22
  53395.494     4.777E-22
  53395.561     4.889E-22
  53395.629     4.978E-22
  53395.696     5.110E-22
  53395.763     5.165E-22
  53395.830     5.196E-22
  53395.897     5.272E-22
  53395.964     5.256E-22
  53396.031     5.275E-22
  53396.098     5.379E-22
  53396.166     5.587E-22
  53396.233     5.835E-22
  53396.300     5.920E-22
  53396.367     5.987E-22
  53396.435     5.947E-22
  53396.502     5.920E-22
  53396.570     6.009E-22
  53396.638     6.239E-22
  53396.706     6.336E-22
  53396.775     6.459E-22
  53396.843     6.530E-22
  53396.911     6.622E-22
  53396.979     6.722E-22
  53397.048     6.923E-22
  53397.116     7.137E-22
  53397.184     7.396E-22
  53397.252     7.678E-22
  53397.320     7.776E-22
  53397.389     7.816E-22
  53397.457     8.026E-22
  53397.525     8.299E-22
  53397.593     8.523E-22
  53397.662     8.769E-22
  53397.730     8.946E-22
  53397.798     9.047E-22
  53397.866     9.140E-22
  53397.935     9.220E-22
  53398.003     9.378E-22
  53398.071     9.509E-22
  53398.139     9.663E-22
  53398.207     9.790E-22
  53398.276     9.865E-22
  53398.344     1.004E-21
  53398.412     1.011E-21
  53398.480     1.036E-21
  53398.549     1.053E-21
  53398.617     1.066E-21
  53398.685     1.086E-21
  53398.753     1.104E-21
  53398.822     1.125E-21
  53398.890     1.139E-21
  53398.958     1.149E-21
  53399.026     1.167E-21
  53399.094     1.182E-21
  53399.163     1.205E-21
  53399.231     1.236E-21
  53399.299     1.273E-21
  53399.367     1.297E-21
  53399.436     1.312E-21
  53399.504     1.326E-21
  53399.572     1.367E-21
  53399.640     1.401E-21
  53399.709     1.457E-21
  53399.777     1.469E-21
  53399.845     1.484E-21
  53399.913     1.504E-21
  53399.981     1.522E-21
  53400.050     1.542E-21
  53400.118     1.590E-21
  53400.186     1.665E-21
  53400.254     1.714E-21
  53400.323     1.762E-21
  53400.391     1.815E-21
  53400.459     1.872E-21
  53400.527     1.945E-21
  53400.596     2.002E-21
  53400.664     2.044E-21
  53400.732     2.120E-21
  53400.800     2.219E-21
  53400.868     2.311E-21
  53400.937     2.401E-21
  53401.005     2.508E-21
  53401.073     2.566E-21
  53401.141     2.721E-21
  53401.210     2.929E-21
  53401.278     3.061E-21
  53401.346     3.184E-21
  53401.414     3.268E-21
  53401.483     3.404E-21
  53401.551     3.572E-21
  53401.619     3.718E-21
  53401.687     3.953E-21
  53401.756     4.224E-21
  53401.824     4.662E-21
  53401.892     4.965E-21
  53401.960     5.251E-21
  53402.028     5.502E-21
  53402.099     6.006E-21
  53402.174     6.628E-21
  53402.289     7.616E-21
  53402.363     8.570E-21
  53402.442     9.876E-21
  53402.526     1.137E-20
  53402.593     1.240E-20
  53402.693     1.346E-20
  53402.759     1.464E-20
  53402.842     1.591E-20
  53402.926     1.704E-20
  53403.009     1.771E-20
  53403.092     1.803E-20
  53403.175     1.834E-20
  53403.259     1.880E-20
  53403.332     1.951E-20
  53403.415     2.007E-20
  53403.498     1.981E-20
  53403.592     1.892E-20
  53403.665     1.828E-20
  53403.748     1.833E-20
  53403.841     1.863E-20
  53403.915     1.857E-20
  53404.008     1.809E-20
  53404.091     1.740E-20
  53404.174     1.673E-20
  53404.258     1.636E-20
  53404.341     1.625E-20
  53404.424     1.611E-20
  53404.508     1.569E-20
  53404.591     1.519E-20
  53404.674     1.487E-20
  53404.757     1.472E-20
  53404.841     1.473E-20
  53404.924     1.470E-20
  53405.024     1.457E-20
  53405.107     1.472E-20
  53405.174     1.527E-20
  53405.257     1.584E-20
  53405.340     1.592E-20
  53405.423     1.553E-20
  53405.507     1.538E-20
  53405.590     1.572E-20
  53405.673     1.637E-20
  53405.756     1.740E-20
  53405.837     1.868E-20
  53405.923     2.004E-20
  53405.996     2.170E-20
  53406.079     2.320E-20
  53406.163     2.396E-20
  53406.246     2.470E-20
  53406.329     2.607E-20
  53406.412     2.749E-20
  53406.496     2.813E-20
  53406.579     2.796E-20
  53406.662     2.717E-20
  53406.745     2.631E-20
  53406.829     2.583E-20
  53406.912     2.540E-20
  53406.995     2.452E-20
  53407.078     2.348E-20
  53407.162     2.246E-20
  53407.245     2.144E-20
  53407.328     2.045E-20
  53407.412     1.961E-20
  53407.505     1.871E-20
  53407.588     1.759E-20
  53407.671     1.614E-20
  53407.755     1.452E-20
  53407.838     1.316E-20
  53407.921     1.225E-20
  53408.004     1.151E-20
  53408.088     1.068E-20
  53408.188     9.757E-21
  53408.271     8.935E-21
  53408.354     8.330E-21
  53408.437     7.877E-21
  53408.521     7.459E-21
  53408.604     7.010E-21
  53408.687     6.583E-21
  53408.775     6.252E-21
  53408.854     6.005E-21
  53408.936     5.727E-21
  53409.015     5.386E-21
  53409.113     4.974E-21
  53409.192     4.644E-21
  53409.268     4.336E-21
  53409.343     4.075E-21
  53409.456     3.877E-21
  53409.531     3.794E-21
  53409.605     3.677E-21
  53409.676     3.560E-21
  53409.744     3.468E-21
  53409.876     3.242E-21
  53409.945     3.142E-21
  53410.013     3.045E-21
  53410.081     2.957E-21
  53410.150     2.911E-21
  53410.218     2.903E-21
  53410.286     2.839E-21
  53410.355     2.737E-21
  53410.423     2.642E-21
  53410.491     2.587E-21
  53410.559     2.533E-21
  53410.628     2.521E-21
  53410.696     2.534E-21
  53410.764     2.549E-21
  53410.832     2.567E-21
  53410.901     2.561E-21
  53410.969     2.544E-21
  53411.037     2.616E-21
  53411.105     2.733E-21
  53411.174     2.848E-21
  53411.242     2.898E-21
  53411.310     3.031E-21
  53411.378     3.156E-21
  53411.447     3.243E-21
  53411.515     3.328E-21
  53411.583     3.402E-21
  53411.651     3.423E-21
  53411.720     3.411E-21
  53411.788     3.431E-21
  53411.856     3.460E-21
  53411.924     3.465E-21
  53411.993     3.430E-21
  53412.061     3.375E-21
  53412.129     3.279E-21
  53412.197     3.168E-21
  53412.266     3.048E-21
  53412.334     2.904E-21
  53412.402     2.783E-21
  53412.471     2.655E-21
  53412.539     2.524E-21
  53412.607     2.402E-21
  53412.675     2.263E-21
  53412.744     2.177E-21
  53412.812     2.071E-21
  53412.880     1.987E-21
  53412.948     1.871E-21
  53413.017     1.756E-21
  53413.085     1.645E-21
  53413.153     1.553E-21
  53413.221     1.488E-21
  53413.290     1.413E-21
  53413.358     1.356E-21
  53413.426     1.294E-21
  53413.494     1.241E-21
  53413.563     1.192E-21
  53413.631     1.152E-21
  53413.699     1.104E-21
  53413.767     1.068E-21
  53413.836     1.037E-21
  53413.904     1.008E-21
  53413.972     9.910E-22
  53414.041     9.719E-22
  53414.109     9.457E-22
  53414.177     9.227E-22
  53414.245     8.937E-22
  53414.314     8.634E-22
  53414.382     8.544E-22
  53414.450     8.399E-22
  53414.518     8.253E-22
  53414.587     8.092E-22
  53414.655     7.897E-22
  53414.723     7.812E-22
  53414.791     7.699E-22
  53414.860     7.446E-22
  53414.928     7.292E-22
  53414.996     7.250E-22
  53415.065     7.072E-22
  53415.133     6.901E-22
  53415.201     6.823E-22
  53415.269     6.591E-22
  53415.338     6.426E-22
  53415.406     6.433E-22
  53415.474     6.407E-22
  53415.542     6.278E-22
  53415.611     6.124E-22
  53415.679     5.991E-22
  53415.747     6.035E-22
  53415.815     6.028E-22
  53415.884     5.973E-22
  53415.952     5.923E-22
  53416.020     5.904E-22
  53416.089     5.818E-22
  53416.157     5.690E-22
  53416.225     5.410E-22
  53416.293     5.280E-22
  53416.362     5.233E-22
  53416.430     5.238E-22
  53416.498     5.208E-22
  53416.566     5.192E-22
  53416.635     5.114E-22
  53416.703     4.981E-22
  53416.771     4.874E-22
  53416.838     4.844E-22
  53416.907     4.783E-22
  53416.975     4.715E-22
  53417.043     4.647E-22
  53417.112     4.590E-22
  53417.179     4.536E-22
  53417.247     4.478E-22
  53417.316     4.427E-22
  53417.384     4.384E-22
  53417.452     4.329E-22
  53417.520     4.280E-22
  53417.588     4.230E-22
  53417.656     4.194E-22
  53417.725     4.170E-22
  53417.793     4.142E-22
  53417.861     4.107E-22
  53417.929     4.080E-22
  53417.997     4.049E-22
  53418.065     4.020E-22
  53418.134     3.996E-22
  53418.202     3.972E-22
  53418.270     3.959E-22
  53418.338     3.946E-22
  53418.406     3.918E-22
  53418.474     3.862E-22
  53418.543     3.796E-22
  53418.611     3.732E-22
  53418.679     3.682E-22
  53418.747     3.650E-22
  53418.815     3.633E-22
  53418.883     3.611E-22
  53418.952     3.578E-22
  53419.020     3.547E-22
  53419.088     3.524E-22
  53419.156     3.516E-22
  53419.224     3.522E-22
  53419.292     3.532E-22
  53419.361     3.552E-22
  53419.429     3.567E-22
  53419.497     3.566E-22
  53419.565     3.550E-22
  53419.633     3.521E-22
  53419.701     3.483E-22
  53419.770     3.447E-22
  53419.838     3.421E-22
  53419.906     3.402E-22
  53419.974     3.401E-22
  53420.042     3.394E-22
  53420.110     3.378E-22
  53420.179     3.353E-22
  53420.247     3.324E-22
  53420.315     3.294E-22
  53420.383     3.276E-22
  53420.451     3.265E-22
  53420.519     3.260E-22
  53420.588     3.258E-22
  53420.656     3.258E-22
  53420.724     3.268E-22
  53420.792     3.280E-22
  53420.860     3.277E-22
  53420.928     3.267E-22
  53420.997     3.256E-22
  53421.065     3.240E-22
  53421.133     3.210E-22
  53421.201     3.184E-22
  53421.269     3.164E-22
  53421.337     3.142E-22
  53421.405     3.129E-22
  53421.473     3.126E-22
  53421.541     3.133E-22
  53421.609     3.140E-22
  53421.677     3.138E-22
  53421.745     3.128E-22
  53421.814     3.124E-22
  53421.882     3.123E-22
  53421.949     3.124E-22
  53422.017     3.133E-22
  53422.085     3.137E-22
  53422.153     3.134E-22
  53422.222     3.130E-22
  53422.290     3.123E-22
  53422.358     3.118E-22
  53422.426     3.115E-22
  53422.493     3.122E-22
  53422.561     3.137E-22
  53422.630     3.157E-22
  53422.698     3.172E-22
  53422.766     3.172E-22
  53422.834     3.158E-22
  53422.902     3.134E-22
  53422.970     3.112E-22
  53423.038     3.098E-22
  53423.106     3.095E-22
  53423.174     3.093E-22
  53423.242     3.087E-22
  53423.310     3.085E-22
  53423.378     3.094E-22
  53423.447     3.105E-22
  53423.515     3.116E-22
  53423.582     3.126E-22
  53423.650     3.139E-22
  53423.718     3.155E-22
  53423.786     3.171E-22
  53423.855     3.180E-22
  53423.923     3.181E-22
  53423.991     3.177E-22
  53424.059     3.161E-22
  53424.126     3.139E-22
  53424.195     3.119E-22
  53424.263     3.115E-22
  53424.331     3.129E-22
  53424.399     3.149E-22
  53424.467     3.162E-22
  53424.535     3.172E-22
  53424.604     3.183E-22
  53424.671     3.192E-22
  53424.739     3.194E-22
  53424.807     3.186E-22
  53424.875     3.163E-22
  53424.943     3.120E-22
  53425.012     3.067E-22
  53425.080     3.020E-22
  53425.148     2.990E-22
  53425.215     2.969E-22
  53425.283     2.954E-22
  53425.351     2.938E-22
  53425.420     2.918E-22
  53425.488     2.894E-22
  53425.556     2.869E-22
  53425.624     2.850E-22
  53425.692     2.838E-22
  53425.759     2.837E-22
  53425.828     2.842E-22
  53425.896     2.843E-22
  53425.964     2.839E-22
  53426.032     2.832E-22
  53426.100     2.820E-22
  53426.168     2.808E-22
  53426.236     2.804E-22
  53426.304     2.801E-22
  53426.372     2.795E-22
  53426.440     2.786E-22
  53426.508     2.780E-22
  53426.576     2.762E-22
  53426.645     2.741E-22
  53426.713     2.718E-22
  53426.780     2.690E-22
  53426.848     2.667E-22
  53426.916     2.649E-22
  53426.984     2.643E-22
  53427.053     2.651E-22
  53427.121     2.665E-22
  53427.189     2.679E-22
  53427.257     2.691E-22
  53427.325     2.687E-22
  53427.393     2.666E-22
  53427.462     2.653E-22
  53427.530     2.648E-22
  53427.598     2.652E-22
  53427.666     2.655E-22
  53427.734     2.656E-22
  53427.802     2.650E-22
  53427.871     2.641E-22
  53427.939     2.642E-22
  53428.007     2.643E-22
  53428.075     2.655E-22
  53428.143     2.679E-22
  53428.211     2.687E-22
  53428.280     2.675E-22
  53428.348     2.657E-22
  53428.416     2.634E-22
  53428.484     2.613E-22
  53428.552     2.598E-22
  53428.620     2.588E-22
  53428.689     2.581E-22
  53428.757     2.579E-22
  53428.825     2.575E-22
  53428.893     2.580E-22
  53428.961     2.589E-22
  53429.029     2.595E-22
  53429.098     2.596E-22
  53429.166     2.595E-22
  53429.234     2.601E-22
  53429.302     2.618E-22
  53429.370     2.637E-22
  53429.438     2.654E-22
  53429.507     2.667E-22
  53429.575     2.681E-22
  53429.643     2.687E-22
  53429.711     2.687E-22
  53429.779     2.680E-22
  53429.847     2.670E-22
  53429.916     2.678E-22
  53429.984     2.685E-22
  53430.052     2.683E-22
  53430.120     2.676E-22
  53430.188     2.667E-22
  53430.256     2.671E-22
  53430.325     2.686E-22
  53430.393     2.709E-22
  53430.461     2.733E-22
  53430.529     2.744E-22
  53430.597     2.754E-22
  53430.665     2.761E-22
  53430.734     2.768E-22
  53430.802     2.791E-22
  53430.870     2.803E-22
  53430.938     2.803E-22
  53431.006     2.801E-22
  53431.074     2.800E-22
  53431.143     2.801E-22
  53431.211     2.809E-22
  53431.279     2.832E-22
  53431.347     2.870E-22
  53431.415     2.909E-22
  53431.483     2.946E-22
  53431.552     2.981E-22
  53431.620     3.000E-22
  53431.688     3.011E-22
  53431.756     3.029E-22
  53431.824     3.042E-22
  53431.892     3.057E-22
  53431.961     3.089E-22
  53432.029     3.143E-22
  53432.097     3.196E-22
  53432.165     3.239E-22
  53432.233     3.271E-22
  53432.301     3.301E-22
  53432.370     3.332E-22
  53432.438     3.371E-22
  53432.506     3.413E-22
  53432.574     3.442E-22
  53432.642     3.477E-22
  53432.710     3.521E-22
  53432.779     3.576E-22
  53432.847     3.644E-22
  53432.915     3.712E-22
  53432.983     3.779E-22
  53433.051     3.858E-22
  53433.119     3.932E-22
  53433.188     3.997E-22
  53433.256     4.066E-22
  53433.325     4.170E-22
  53433.394     4.272E-22
  53433.463     4.372E-22
  53433.533     4.491E-22
  53433.602     4.662E-22
  53433.671     4.803E-22
  53433.741     4.987E-22
  53433.810     5.136E-22
  53433.879     5.379E-22
  53433.948     5.620E-22
  53434.019     5.939E-22
  53434.088     6.343E-22
  53434.157     6.757E-22
  53434.227     7.210E-22
  53434.295     7.695E-22
  53434.363     8.190E-22
  53434.432     8.784E-22
  53434.500     9.576E-22
  53434.568     1.077E-21
  53434.637     1.180E-21
  53434.705     1.295E-21
  53434.773     1.420E-21
  53434.842     1.575E-21
  53434.910     1.773E-21
  53434.978     1.948E-21
  53435.046     2.093E-21
  53435.115     2.247E-21
  53435.183     2.388E-21
  53435.251     2.465E-21
  53435.320     2.564E-21
  53435.388     2.577E-21
  53435.456     2.598E-21
  53435.525     2.585E-21
  53435.593     2.546E-21
  53435.661     2.536E-21
  53435.730     2.543E-21
  53435.798     2.530E-21
  53435.866     2.448E-21
  53435.935     2.343E-21
  53436.003     2.218E-21
  53436.071     2.112E-21
  53436.139     2.001E-21
  53436.208     1.895E-21
  53436.276     1.777E-21
  53436.344     1.647E-21
  53436.413     1.551E-21
  53436.481     1.433E-21
  53436.549     1.309E-21
  53436.618     1.207E-21
  53436.686     1.121E-21
  53436.754     1.037E-21
  53436.823     9.755E-22
  53436.891     9.146E-22
  53436.959     8.669E-22
  53437.028     8.284E-22
  53437.096     7.854E-22
  53437.164     7.517E-22
  53437.233     7.337E-22
  53437.301     7.081E-22
  53437.369     6.909E-22
  53437.438     6.682E-22
  53437.506     6.479E-22
  53437.574     6.371E-22
  53437.642     6.276E-22
  53437.779     6.185E-22
  53437.845     6.080E-22
  53437.912     6.080E-22
  53437.979     6.135E-22
  53438.045     6.198E-22
  53438.112     6.196E-22
  53438.178     6.175E-22
  53438.244     6.083E-22
  53438.311     6.018E-22
  53438.377     6.008E-22
  53438.443     5.949E-22
  53438.504     5.894E-22
  53438.575     5.868E-22
  53438.644     5.856E-22
  53438.714     5.850E-22
  53438.784     5.873E-22
  53438.854     5.940E-22
  53438.924     6.003E-22
  53438.995     6.027E-22
  53439.064     6.011E-22
  53439.135     6.124E-22
  53439.205     6.235E-22
  53439.275     6.351E-22
  53439.344     6.527E-22
  53439.415     6.658E-22
  53439.485     6.767E-22
  53439.555     6.847E-22
  53439.624     6.893E-22
  53439.692     7.091E-22
  53439.760     7.318E-22
  53439.829     7.430E-22
  53439.897     7.614E-22
  53439.965     7.882E-22
  53440.034     8.353E-22
  53440.102     8.882E-22
  53440.170     9.552E-22
  53440.239     1.011E-21
  53440.307     1.070E-21
  53440.375     1.134E-21
  53440.444     1.214E-21
  53440.512     1.303E-21
  53440.580     1.393E-21
  53440.649     1.510E-21
  53440.717     1.674E-21
  53440.785     1.792E-21
  53440.854     1.918E-21
  53440.922     2.075E-21
  53440.990     2.247E-21
  53441.059     2.415E-21
  53441.127     2.630E-21
  53441.195     2.727E-21
  53441.264     2.858E-21
  53441.332     2.935E-21
  53441.400     2.988E-21
  53441.469     3.037E-21
  53441.537     3.052E-21
  53441.605     3.004E-21
  53441.674     2.937E-21
  53441.742     2.885E-21
  53441.810     2.788E-21
  53441.878     2.696E-21
  53441.947     2.590E-21
  53442.015     2.489E-21
  53442.083     2.389E-21
  53442.152     2.289E-21
  53442.220     2.143E-21
  53442.288     2.016E-21
  53442.357     1.886E-21
  53442.425     1.748E-21
  53442.493     1.645E-21
  53442.562     1.577E-21
  53442.630     1.518E-21
  53442.698     1.461E-21
  53442.767     1.416E-21
  53442.835     1.375E-21
  53442.903     1.324E-21
  53442.972     1.281E-21
  53443.040     1.237E-21
  53443.108     1.213E-21
  53443.177     1.174E-21
  53443.245     1.154E-21
  53443.313     1.139E-21
  53443.382     1.114E-21
  53443.450     1.091E-21
  53443.518     1.065E-21
  53443.587     1.050E-21
  53443.655     1.025E-21
  53443.723     9.990E-22
  53443.792     1.001E-21
  53443.860     9.882E-22
  53443.928     9.869E-22
  53443.997     9.767E-22
  53444.065     9.702E-22
  53444.133     9.694E-22
  53444.202     9.387E-22
  53444.270     9.291E-22
  53444.338     9.109E-22
  53444.407     8.913E-22
  53444.475     8.731E-22
  53444.543     8.645E-22
  53444.614     8.599E-22
  53444.684     8.514E-22
  53444.754     8.380E-22
  53444.825     8.114E-22
  53444.895     7.937E-22
  53444.965     7.845E-22
  53445.035     7.761E-22
  53445.105     7.732E-22
  53445.175     7.624E-22
  53445.246     7.566E-22
  53445.315     7.540E-22
  53445.385     7.521E-22
  53445.455     7.486E-22
  53445.525     7.409E-22
  53445.594     7.347E-22
  53445.662     7.335E-22
  53445.730     7.355E-22
  53445.798     7.383E-22
  53445.866     7.380E-22
  53445.934     7.373E-22
  53446.003     7.376E-22
  53446.071     7.376E-22
  53446.139     7.384E-22
  53446.207     7.428E-22
  53446.275     7.503E-22
  53446.343     7.567E-22
  53446.412     7.595E-22
  53446.480     7.595E-22
  53446.548     7.560E-22
  53446.614     7.570E-22
  53446.681     7.646E-22
  53446.747     7.729E-22
  53446.815     7.806E-22
  53446.881     7.817E-22
  53446.948     7.843E-22
  53447.015     7.872E-22
  53447.081     7.952E-22
  53447.148     8.075E-22
  53447.215     8.220E-22
  53447.282     8.300E-22
  53447.348     8.409E-22
  53447.415     8.475E-22
  53447.550     8.526E-22
  53447.619     8.577E-22
  53447.687     8.730E-22
  53447.755     8.956E-22
  53447.824     9.040E-22
  53447.892     9.122E-22
  53447.960     9.125E-22
  53448.029     9.096E-22
  53448.097     9.129E-22
  53448.165     9.177E-22
  53448.234     9.304E-22
  53448.302     9.334E-22
  53448.370     9.458E-22
  53448.439     9.584E-22
  53448.507     9.753E-22
  53448.575     9.989E-22
  53448.644     1.002E-21
  53448.712     1.001E-21
  53448.780     1.016E-21
  53448.849     1.047E-21
  53448.917     1.062E-21
  53448.985     1.071E-21
  53449.054     1.098E-21
  53449.122     1.123E-21
  53449.190     1.145E-21
  53449.259     1.168E-21
  53449.327     1.175E-21
  53449.396     1.181E-21
  53449.464     1.191E-21
  53449.532     1.206E-21
  53449.601     1.231E-21
  53449.669     1.249E-21
  53449.737     1.261E-21
  53449.806     1.283E-21
  53449.874     1.317E-21
  53449.942     1.348E-21
  53450.011     1.362E-21
  53450.079     1.395E-21
  53450.147     1.428E-21
  53450.216     1.437E-21
  53450.284     1.450E-21
  53450.352     1.493E-21
  53450.421     1.549E-21
  53450.489     1.588E-21
  53450.557     1.618E-21
  53450.626     1.660E-21
  53450.694     1.687E-21
  53450.762     1.697E-21
  53450.831     1.694E-21
  53450.899     1.726E-21
  53450.967     1.766E-21
  53451.036     1.819E-21
  53451.104     1.853E-21
  53451.173     1.896E-21
  53451.241     1.948E-21
  53451.309     1.981E-21
  53451.378     2.011E-21
  53451.446     2.060E-21
  53451.514     2.144E-21
  53452.547     3.550E-21
  53452.693     3.891E-21
  53452.774     4.149E-21
  53452.857     4.420E-21
  53452.981     4.814E-21
  53453.062     5.050E-21
  53453.149     5.280E-21
  53453.237     5.644E-21
  53453.340     6.202E-21
  53453.425     6.736E-21
  53453.515     7.175E-21
  53453.598     7.422E-21
  53453.681     7.763E-21
  53453.765     8.225E-21
  53453.848     8.813E-21
  53453.932     9.625E-21
  53454.015     1.043E-20
  53454.098     1.101E-20
  53454.182     1.164E-20
  53454.265     1.257E-20
  53454.332     1.370E-20
  53454.415     1.490E-20
  53454.499     1.622E-20
  53454.582     1.764E-20
  53454.665     1.909E-20
  53454.739     2.071E-20
  53454.822     2.253E-20
  53454.905     2.429E-20
  53454.989     2.593E-20
  53455.072     2.748E-20
  53455.156     2.864E-20
  53455.239     2.947E-20
  53455.322     3.018E-20
  53455.406     3.050E-20
  53455.489     3.034E-20
  53455.572     2.988E-20
  53455.656     2.936E-20
  53455.739     2.882E-20
  53455.823     2.811E-20
  53455.906     2.731E-20
  53455.989     2.666E-20
  53456.073     2.606E-20
  53456.156     2.522E-20
  53456.240     2.441E-20
  53456.323     2.387E-20
  53456.406     2.374E-20
  53456.490     2.385E-20
  53456.573     2.391E-20
  53456.656     2.362E-20
  53456.740     2.339E-20
  53456.823     2.353E-20
  53456.907     2.359E-20
  53456.990     2.352E-20
  53457.073     2.357E-20
  53457.157     2.379E-20
  53457.240     2.412E-20
  53457.324     2.463E-20
  53457.407     2.577E-20
  53457.490     2.758E-20
  53457.574     2.945E-20
  53457.657     3.108E-20
  53457.741     3.282E-20
  53457.824     3.495E-20
  53457.907     3.699E-20
  53457.979     3.835E-20
  53458.062     3.876E-20
  53458.146     3.845E-20
  53458.229     3.805E-20
  53458.313     3.758E-20
  53458.396     3.714E-20
  53458.479     3.676E-20
  53458.574     3.599E-20
  53458.658     3.479E-20
  53458.741     3.348E-20
  53458.825     3.221E-20
  53458.908     3.104E-20
  53458.991     2.997E-20
  53459.075     2.878E-20
  53459.158     2.760E-20
  53459.242     2.638E-20
  53459.325     2.475E-20
  53459.408     2.289E-20
  53459.492     2.152E-20
  53459.575     2.066E-20
  53459.669     1.955E-20
  53459.752     1.835E-20
  53459.835     1.722E-20
  53459.919     1.614E-20
  53460.002     1.541E-20
  53460.086     1.481E-20
  53460.169     1.396E-20
  53460.269     1.311E-20
  53460.336     1.253E-20
  53460.419     1.192E-20
  53460.519     1.120E-20
  53460.586     1.054E-20
  53460.686     9.970E-21
  53460.769     9.381E-21
  53460.853     8.701E-21
  53460.936     8.087E-21
  53461.020     7.601E-21
  53461.106     7.132E-21
  53461.186     6.647E-21
  53461.273     6.153E-21
  53461.357     5.755E-21
  53461.439     5.514E-21
  53461.517     5.323E-21
  53461.608     5.044E-21
  53461.692     4.721E-21
  53461.773     4.393E-21
  53461.851     4.105E-21
  53461.928     3.977E-21
  53462.031     3.856E-21
  53462.108     3.714E-21
  53462.185     3.582E-21
  53462.260     3.432E-21
  53462.372     3.335E-21
  53462.448     3.293E-21
  53462.522     3.217E-21
  53462.595     3.105E-21
  53462.666     3.016E-21
  53462.790     2.908E-21
  53462.862     2.857E-21
  53462.932     2.808E-21
  53463.001     2.754E-21
  53463.135     2.676E-21
  53463.204     2.634E-21
  53463.273     2.578E-21
  53463.341     2.545E-21
  53463.410     2.517E-21
  53463.478     2.497E-21
  53463.546     2.471E-21
  53463.615     2.432E-21
  53463.683     2.450E-21
  53463.751     2.487E-21
  53463.820     2.521E-21
  53463.888     2.536E-21
  53463.957     2.573E-21
  53464.025     2.647E-21
  53464.093     2.734E-21
  53464.162     2.855E-21
  53464.230     3.019E-21
  53464.298     3.091E-21
  53464.367     3.140E-21
  53464.435     3.191E-21
  53464.504     3.251E-21
  53464.572     3.329E-21
  53464.640     3.359E-21
  53464.709     3.348E-21
  53464.777     3.357E-21
  53464.845     3.309E-21
  53464.914     3.229E-21
  53464.982     3.181E-21
  53465.051     3.105E-21
  53465.119     3.008E-21
  53465.187     2.902E-21
  53465.256     2.738E-21
  53465.324     2.579E-21
  53465.393     2.452E-21
  53465.461     2.323E-21
  53465.529     2.186E-21
  53465.598     2.057E-21
  53465.666     1.941E-21
  53465.734     1.821E-21
  53465.803     1.730E-21
  53465.871     1.648E-21
  53465.940     1.585E-21
  53466.008     1.531E-21
  53466.076     1.479E-21
  53466.145     1.419E-21
  53466.213     1.368E-21
  53466.281     1.330E-21
  53466.350     1.286E-21
  53466.418     1.256E-21
  53466.487     1.236E-21
  53466.555     1.208E-21
  53466.623     1.188E-21
  53466.692     1.177E-21
  53466.760     1.154E-21
  53466.829     1.112E-21
  53466.897     1.085E-21
  53466.965     1.076E-21
  53467.034     1.066E-21
  53467.102     1.045E-21
  53467.170     1.015E-21
  53467.239     9.840E-22
  53467.307     9.643E-22
  53467.376     9.398E-22
  53467.444     9.239E-22
  53467.512     9.177E-22
  53467.581     9.034E-22
  53467.649     9.045E-22
  53467.718     8.687E-22
  53467.786     8.610E-22
  53467.854     8.570E-22
  53467.924     8.450E-22
  53467.993     8.337E-22
  53468.063     8.281E-22
  53468.133     7.966E-22
  53468.202     7.761E-22
  53468.272     7.640E-22
  53468.341     7.463E-22
  53468.410     7.421E-22
  53468.480     7.365E-22
  53468.549     7.244E-22
  53468.619     7.116E-22
  53468.688     7.125E-22
  53468.757     7.022E-22
  53468.827     6.946E-22
  53468.896     6.823E-22
  53468.966     6.712E-22
  53469.035     6.623E-22
  53469.104     6.518E-22
  53469.173     6.415E-22
  53469.242     6.340E-22
  53469.311     6.276E-22
  53469.381     6.238E-22
  53469.450     6.178E-22
  53469.519     6.098E-22
  53469.587     6.066E-22
  53469.655     6.031E-22
  53469.723     5.983E-22
  53469.792     5.925E-22
  53469.860     5.863E-22
  53469.928     5.821E-22
  53469.996     5.816E-22
  53470.064     5.845E-22
  53470.132     5.882E-22
  53470.200     5.892E-22
  53470.269     5.863E-22
  53470.337     5.807E-22
  53470.405     5.741E-22
  53470.473     5.678E-22
  53470.541     5.615E-22
  53470.609     5.557E-22
  53470.678     5.487E-22
  53470.746     5.423E-22
  53470.814     5.391E-22
  53470.882     5.387E-22
  53470.950     5.392E-22
  53471.018     5.420E-22
  53471.087     5.444E-22
  53471.155     5.430E-22
  53471.224     5.404E-22
  53471.292     5.364E-22
  53471.360     5.325E-22
  53471.428     5.304E-22
  53471.497     5.296E-22
  53471.565     5.285E-22
  53471.634     5.269E-22
  53471.702     5.257E-22
  53471.770     5.249E-22
  53471.838     5.245E-22
  53471.907     5.244E-22
  53471.975     5.243E-22
  53472.044     5.236E-22
  53472.112     5.220E-22
  53472.181     5.202E-22
  53472.249     5.177E-22
  53472.317     5.157E-22
  53472.385     5.147E-22
  53472.454     5.150E-22
  53472.523     5.168E-22
  53472.591     5.204E-22
  53472.659     5.242E-22
  53472.727     5.279E-22
  53472.795     5.296E-22
  53472.864     5.294E-22
  53472.933     5.278E-22
  53473.001     5.250E-22
  53473.069     5.228E-22
  53473.137     5.232E-22
  53473.205     5.259E-22
  53473.273     5.292E-22
  53473.342     5.339E-22
  53473.410     5.388E-22
  53473.478     5.421E-22
  53473.546     5.465E-22
  53473.614     5.540E-22
  53473.682     5.657E-22
  53473.751     5.799E-22
  53473.819     5.934E-22
  53473.887     6.037E-22
  53473.955     6.117E-22
  53474.023     6.200E-22
  53474.091     6.282E-22
  53474.160     6.368E-22
  53474.228     6.453E-22
  53474.296     6.511E-22
  53474.364     6.551E-22
  53474.432     6.606E-22
  53474.500     6.642E-22
  53474.569     6.643E-22
  53474.637     6.650E-22
  53474.773     6.707E-22
  53474.840     6.836E-22
  53474.907     6.961E-22
  53474.974     7.052E-22
  53475.041     7.173E-22
  53475.108     7.316E-22
  53475.175     7.428E-22
  53475.243     7.480E-22
  53475.309     7.556E-22
  53475.376     7.633E-22
  53475.444     7.775E-22
  53475.511     7.980E-22
  53475.579     8.182E-22
  53475.646     8.247E-22
  53475.714     8.334E-22
  53475.782     8.495E-22
  53475.850     8.474E-22
  53475.919     8.594E-22
  53475.987     8.683E-22
  53476.056     8.849E-22
  53476.124     8.995E-22
  53476.192     9.130E-22
  53476.261     9.420E-22
  53476.329     9.620E-22
  53476.398     9.746E-22
  53476.466     9.808E-22
  53476.534     9.753E-22
  53476.603     9.751E-22
  53476.671     9.919E-22
  53476.740     1.017E-21
  53476.808     1.043E-21
  53476.876     1.074E-21
  53476.945     1.126E-21
  53477.013     1.164E-21
  53477.082     1.199E-21
  53477.150     1.254E-21
  53477.218     1.314E-21
  53477.287     1.388E-21
  53477.355     1.460E-21
  53477.424     1.546E-21
  53477.492     1.678E-21
  53477.561     1.818E-21
  53477.629     1.957E-21
  53477.697     2.112E-21
  53477.766     2.254E-21
  53477.834     2.388E-21
  53477.903     2.505E-21
  53477.971     2.605E-21
  53478.039     2.671E-21
  53478.108     2.726E-21
  53478.176     2.720E-21
  53478.245     2.773E-21
  53478.313     2.818E-21
  53478.381     2.788E-21
  53478.450     2.741E-21
  53478.518     2.739E-21
  53478.587     2.634E-21
  53478.655     2.490E-21
  53478.724     2.376E-21
  53478.792     2.258E-21
  53478.860     2.160E-21
  53478.929     2.049E-21
  53478.997     1.944E-21
  53479.066     1.831E-21
  53479.134     1.690E-21
  53479.202     1.557E-21
  53479.271     1.442E-21
  53479.339     1.366E-21
  53479.408     1.306E-21
  53479.476     1.260E-21
  53479.544     1.216E-21
  53479.613     1.150E-21
  53479.681     1.110E-21
  53479.750     1.086E-21
  53479.818     1.065E-21
  53479.887     1.039E-21
  53479.955     1.022E-21
  53480.023     1.025E-21
  53480.092     1.036E-21
  53480.160     1.044E-21
  53480.229     1.055E-21
  53480.297     1.071E-21
  53480.365     1.105E-21
  53480.434     1.137E-21
  53480.502     1.170E-21
  53480.571     1.223E-21
  53480.639     1.274E-21
  53480.708     1.315E-21
  53480.776     1.373E-21
  53480.844     1.455E-21
  53480.913     1.536E-21
  53480.981     1.590E-21
  53481.050     1.660E-21
  53481.118     1.673E-21
  53481.186     1.676E-21
  53481.255     1.673E-21
  53481.323     1.662E-21
  53481.392     1.656E-21
  53481.460     1.635E-21
  53481.529     1.609E-21
  53481.597     1.563E-21
  53481.665     1.516E-21
  53481.734     1.449E-21
  53481.802     1.382E-21
  53481.871     1.333E-21
  53481.939     1.281E-21
  53482.007     1.235E-21
  53482.076     1.192E-21
  53482.144     1.163E-21
  53482.213     1.123E-21
  53482.281     1.069E-21
  53482.350     1.018E-21
  53482.418     9.724E-22
  53482.486     9.338E-22
  53482.555     8.838E-22
  53482.623     8.412E-22
  53482.692     8.096E-22
  53482.760     7.695E-22
  53482.829     7.556E-22
  53482.897     7.446E-22
  53482.965     7.243E-22
  53483.034     7.074E-22
  53483.101     7.046E-22
  53483.169     7.011E-22
  53483.236     6.953E-22
  53483.303     6.849E-22
  53483.371     6.761E-22
  53483.438     6.757E-22
  53483.506     6.676E-22
  53483.573     6.571E-22
  53483.640     6.561E-22
  53483.707     6.465E-22
  53483.774     6.411E-22
  53483.841     6.297E-22
  53483.909     6.180E-22
  53483.976     6.098E-22
  53484.043     6.015E-22
  53484.111     5.940E-22
  53484.179     5.875E-22
  53484.247     5.818E-22
  53484.316     5.790E-22
  53484.384     5.794E-22
  53484.452     5.773E-22
  53484.520     5.696E-22
  53484.588     5.616E-22
  53484.656     5.574E-22
  53484.725     5.544E-22
  53484.793     5.524E-22
  53484.861     5.525E-22
  53484.929     5.542E-22
  53484.997     5.543E-22
  53485.065     5.535E-22
  53485.133     5.551E-22
  53485.202     5.578E-22
  53485.270     5.585E-22
  53485.338     5.564E-22
  53485.406     5.500E-22
  53485.474     5.442E-22
  53485.542     5.391E-22
  53485.611     5.391E-22
  53485.679     5.436E-22
  53485.747     5.494E-22
  53485.815     5.534E-22
  53485.883     5.559E-22
  53485.951     5.574E-22
  53486.020     5.598E-22
  53486.088     5.633E-22
  53486.156     5.687E-22
  53486.224     5.771E-22
  53486.292     5.844E-22
  53486.360     5.881E-22
  53486.429     5.891E-22
  53486.497     5.872E-22
  53486.565     5.850E-22
  53486.634     5.875E-22
  53486.704     5.944E-22
  53486.773     6.045E-22
  53486.843     6.131E-22
  53486.913     6.198E-22
  53486.982     6.245E-22
  53487.052     6.269E-22
  53487.121     6.295E-22
  53487.191     6.321E-22
  53487.260     6.413E-22
  53487.331     6.506E-22
  53487.400     6.658E-22
  53487.470     6.750E-22
  53487.540     6.784E-22
  53487.609     6.908E-22
  53487.679     7.052E-22
  53487.749     7.097E-22
  53487.819     7.192E-22
  53487.889     7.384E-22
  53487.959     7.496E-22
  53488.029     7.581E-22
  53488.097     7.751E-22
  53488.166     7.807E-22
  53488.234     7.867E-22
  53488.303     8.038E-22
  53488.371     8.238E-22
  53488.440     8.632E-22
  53488.508     8.969E-22
  53488.577     9.084E-22
  53488.645     9.334E-22
  53488.713     9.712E-22
  53488.782     1.005E-21
  53488.850     1.053E-21
  53488.919     1.098E-21
  53488.987     1.153E-21
  53489.056     1.206E-21
  53489.124     1.264E-21
  53489.192     1.320E-21
  53489.261     1.372E-21
  53489.329     1.459E-21
  53489.398     1.548E-21
  53489.466     1.639E-21
  53489.535     1.746E-21
  53489.603     1.854E-21
  53489.671     1.963E-21
  53489.740     2.049E-21
  53489.808     2.159E-21
  53489.877     2.253E-21
  53489.945     2.325E-21
  53490.014     2.380E-21
  53490.082     2.413E-21
  53490.151     2.431E-21
  53490.219     2.390E-21
  53490.287     2.400E-21
  53490.356     2.372E-21
  53490.424     2.346E-21
  53490.493     2.329E-21
  53490.561     2.271E-21
  53490.630     2.219E-21
  53490.698     2.185E-21
  53490.767     2.140E-21
  53490.835     2.077E-21
  53490.903     2.015E-21
  53490.972     1.927E-21
  53491.040     1.876E-21
  53491.109     1.820E-21
  53491.177     1.780E-21
  53491.246     1.729E-21
  53491.314     1.681E-21
  53491.382     1.639E-21
  53491.451     1.590E-21
  53491.519     1.570E-21
  53491.588     1.537E-21
  53491.656     1.495E-21
  53491.725     1.439E-21
  53491.793     1.388E-21
  53491.862     1.359E-21
  53491.930     1.345E-21
  53491.998     1.352E-21
  53492.067     1.353E-21
  53492.135     1.344E-21
  53492.204     1.331E-21
  53492.272     1.321E-21
  53492.341     1.309E-21
  53492.409     1.322E-21
  53492.478     1.328E-21
  53492.546     1.339E-21
  53492.614     1.343E-21
  53492.683     1.357E-21
  53492.751     1.380E-21
  53492.820     1.409E-21
  53492.888     1.436E-21
  53492.957     1.460E-21
  53493.025     1.478E-21
  53493.094     1.488E-21
  53493.162     1.523E-21
  53493.230     1.543E-21
  53493.299     1.572E-21
  53493.367     1.593E-21
  53493.436     1.597E-21
  53493.504     1.599E-21
  53493.573     1.613E-21
  53493.641     1.641E-21
  53493.710     1.688E-21
  53493.778     1.708E-21
  53493.846     1.734E-21
  53493.915     1.762E-21
  53493.983     1.793E-21
  53494.052     1.819E-21
  53494.120     1.834E-21
  53494.189     1.845E-21
  53494.257     1.848E-21
  53494.326     1.856E-21
  53494.394     1.859E-21
  53494.462     1.888E-21
  53494.531     1.928E-21
  53494.599     1.956E-21
  53494.668     1.988E-21
  53494.736     2.030E-21
  53494.805     2.085E-21
  53494.873     2.139E-21
  53494.942     2.174E-21
  53495.010     2.262E-21
  53495.079     2.330E-21
  53495.147     2.388E-21
  53495.215     2.409E-21
  53495.284     2.410E-21
  53495.352     2.414E-21
  53495.421     2.424E-21
  53495.489     2.438E-21
  53495.558     2.445E-21
  53495.626     2.425E-21
  53495.695     2.447E-21
  53495.763     2.424E-21
  53495.831     2.455E-21
  53495.900     2.440E-21
  53495.968     2.422E-21
  53496.037     2.398E-21
  53496.105     2.370E-21
  53496.174     2.374E-21
  53496.242     2.370E-21
  53496.311     2.400E-21
  53496.379     2.429E-21
  53496.448     2.451E-21
  53496.516     2.454E-21
  53496.584     2.507E-21
  53496.653     2.537E-21
  53496.721     2.554E-21
  53496.790     2.586E-21
  53496.858     2.652E-21
  53496.927     2.716E-21
  53496.995     2.712E-21
  53497.064     2.785E-21
  53497.132     2.839E-21
  53497.201     2.899E-21
  53497.269     2.992E-21
  53497.337     3.089E-21
  53497.406     3.181E-21
  53497.474     3.274E-21
  53497.543     3.336E-21
  53497.611     3.376E-21
  53497.680     3.486E-21
  53497.748     3.596E-21
  53497.817     3.687E-21
  53497.885     3.774E-21
  53497.954     3.819E-21
  53498.022     3.917E-21
  53498.090     4.035E-21
  53498.159     4.098E-21
  53498.227     4.235E-21
  53498.296     4.362E-21
  53498.364     4.550E-21
  53498.433     4.708E-21
  53498.501     4.804E-21
  53498.570     4.979E-21
  53498.638     5.115E-21
  53498.707     5.289E-21
  53498.775     5.470E-21
  53498.843     5.661E-21
  53498.912     5.892E-21
  53498.980     6.059E-21
  53499.051     6.249E-21
  53499.124     6.443E-21
  53499.250     6.875E-21
  53499.322     6.813E-21
  53499.398     6.829E-21
  53499.477     7.035E-21
  53499.579     7.357E-21
  53499.659     7.544E-21
  53499.737     7.832E-21
  53499.822     8.219E-21
  53499.905     8.653E-21
  53499.989     9.124E-21
  53500.072     9.775E-21
  53500.156     1.049E-20
  53500.223     1.110E-20
  53500.323     1.162E-20
  53500.406     1.221E-20
  53500.473     1.293E-20
  53500.557     1.393E-20
  53500.640     1.545E-20
  53500.724     1.746E-20
  53500.807     1.953E-20
  53500.881     2.140E-20
  53500.964     2.322E-20
  53501.048     2.545E-20
  53501.131     2.815E-20
  53501.215     3.061E-20
  53501.298     3.257E-20
  53501.382     3.413E-20
  53501.465     3.583E-20
  53501.537     3.775E-20
  53501.620     3.942E-20
  53501.704     4.055E-20
  53501.787     4.119E-20
  53501.871     4.155E-20
  53501.954     4.156E-20
  53502.038     4.142E-20
  53502.121     4.183E-20
  53502.205     4.197E-20
  53502.288     4.103E-20
  53502.384     4.003E-20
  53502.455     3.950E-20
  53502.539     3.811E-20
  53502.634     3.601E-20
  53502.706     3.463E-20
  53502.801     3.462E-20
  53502.885     3.524E-20
  53502.968     3.560E-20
  53503.052     3.555E-20
  53503.135     3.511E-20
  53503.219     3.472E-20
  53503.290     3.504E-20
  53503.386     3.674E-20
  53503.457     3.950E-20
  53503.541     4.205E-20
  53503.624     4.376E-20
  53503.708     4.491E-20
  53503.791     4.584E-20
  53503.875     4.770E-20
  53503.958     5.027E-20
  53504.042     5.257E-20
  53504.125     5.377E-20
  53504.209     5.360E-20
  53504.292     5.269E-20
  53504.376     5.192E-20
  53504.459     5.130E-20
  53504.543     4.999E-20
  53504.627     4.765E-20
  53504.710     4.427E-20
  53504.794     4.059E-20
  53504.877     3.822E-20
  53504.972     3.755E-20
  53505.056     3.713E-20
  53505.139     3.596E-20
  53505.223     3.403E-20
  53505.306     3.162E-20
  53505.390     2.949E-20
  53505.473     2.758E-20
  53505.557     2.557E-20
  53505.640     2.380E-20
  53505.724     2.216E-20
  53505.807     2.043E-20
  53505.901     1.878E-20
  53505.984     1.727E-20
  53506.068     1.599E-20
  53506.151     1.510E-20
  53506.235     1.446E-20
  53506.318     1.377E-20
  53506.402     1.286E-20
  53506.502     1.197E-20
  53506.569     1.134E-20
  53506.669     1.069E-20
  53506.753     9.903E-21
  53506.838     9.148E-21
  53506.920     8.695E-21
  53506.987     8.266E-21
  53507.078     7.703E-21
  53507.181     7.056E-21
  53507.260     6.540E-21
  53507.335     6.086E-21
  53507.408     5.712E-21
  53507.479     5.398E-21
  53507.604     4.938E-21
  53507.676     4.728E-21
  53507.744     4.440E-21
  53507.813     4.276E-21
  53507.881     4.163E-21
  53507.950     4.061E-21
  53508.018     3.963E-21
  53508.087     3.741E-21
  53508.155     3.610E-21
  53508.224     3.511E-21
  53508.292     3.411E-21
  53508.361     3.281E-21
  53508.429     3.200E-21
  53508.498     3.119E-21
  53508.566     3.038E-21
  53508.635     2.978E-21
  53508.703     2.944E-21
  53508.772     2.922E-21
  53508.840     2.828E-21
  53508.909     2.707E-21
  53508.977     2.634E-21
  53509.045     2.531E-21
  53509.114     2.450E-21
  53509.182     2.397E-21
  53509.251     2.358E-21
  53509.319     2.311E-21
  53509.388     2.266E-21
  53509.456     2.203E-21
  53509.525     2.156E-21
  53509.593     2.102E-21
  53509.662     2.081E-21
  53509.730     2.039E-21
  53509.799     1.975E-21
  53509.867     1.956E-21
  53509.936     1.935E-21
  53510.004     1.901E-21
  53510.073     1.851E-21
  53510.141     1.817E-21
  53510.210     1.777E-21
  53510.278     1.746E-21
  53510.347     1.711E-21
  53510.415     1.668E-21
  53510.484     1.632E-21
  53510.552     1.611E-21
  53510.621     1.598E-21
  53510.689     1.578E-21
  53510.758     1.550E-21
  53510.826     1.508E-21
  53510.895     1.487E-21
  53510.963     1.479E-21
  53511.032     1.447E-21
  53511.100     1.425E-21
  53511.168     1.420E-21
  53511.237     1.408E-21
  53511.305     1.398E-21
  53511.374     1.378E-21
  53511.442     1.361E-21
  53511.511     1.338E-21
  53511.579     1.306E-21
  53511.648     1.292E-21
  53511.716     1.287E-21
  53511.785     1.274E-21
  53511.853     1.258E-21
  53511.922     1.262E-21
  53511.990     1.236E-21
  53512.059     1.207E-21
  53512.127     1.202E-21
  53512.196     1.189E-21
  53512.264     1.174E-21
  53512.333     1.155E-21
  53512.401     1.135E-21
  53512.470     1.132E-21
  53512.538     1.121E-21
  53512.607     1.106E-21
  53512.675     1.090E-21
  53512.744     1.083E-21
  53512.812     1.066E-21
  53512.881     1.050E-21
  53512.949     1.041E-21
  53513.018     1.031E-21
  53513.086     1.037E-21
  53513.155     1.025E-21
  53513.223     1.018E-21
  53513.292     1.016E-21
  53513.360     1.008E-21
  53513.429     9.967E-22
  53513.497     9.778E-22
  53513.566     9.816E-22
  53513.634     9.828E-22
  53513.703     9.735E-22
  53513.771     9.551E-22
  53513.840     9.264E-22
  53513.908     9.215E-22
  53513.977     9.277E-22
  53514.045     9.382E-22
  53514.114     9.323E-22
  53514.182     9.255E-22
  53514.251     9.225E-22
  53514.319     9.091E-22
  53514.388     8.957E-22
  53514.456     8.802E-22
  53514.525     8.702E-22
  53514.593     8.565E-22
  53514.661     8.610E-22
  53514.730     8.737E-22
  53514.797     8.661E-22
  53514.866     8.553E-22
  53514.933     8.486E-22
  53515.002     8.353E-22
  53515.069     8.353E-22
  53515.137     8.339E-22
  53515.205     8.344E-22
  53515.273     8.323E-22
  53515.340     8.266E-22
  53515.408     8.240E-22
  53515.476     8.124E-22
  53515.544     8.014E-22
  53515.611     7.974E-22
  53515.679     7.875E-22
  53515.746     7.848E-22
  53515.814     7.800E-22
  53515.882     7.792E-22
  53515.949     7.770E-22
  53516.009     7.658E-22
  53516.077     7.666E-22
  53516.146     7.679E-22
  53516.215     7.707E-22
  53516.283     7.729E-22
  53516.352     7.737E-22
  53516.420     7.738E-22
  53516.488     7.707E-22
  53516.557     7.658E-22
  53516.626     7.629E-22
  53516.694     7.636E-22
  53516.762     7.650E-22
  53516.831     7.665E-22
  53516.899     7.651E-22
  53516.967     7.634E-22
  53517.036     7.635E-22
  53517.105     7.623E-22
  53517.173     7.588E-22
  53517.242     7.542E-22
  53517.310     7.505E-22
  53517.378     7.455E-22
  53517.447     7.399E-22
  53517.516     7.363E-22
  53517.584     7.354E-22
  53517.652     7.370E-22
  53517.721     7.402E-22
  53517.789     7.436E-22
  53517.858     7.466E-22
  53517.926     7.495E-22
  53517.995     7.516E-22
  53518.063     7.519E-22
  53518.132     7.505E-22
  53518.200     7.476E-22
  53518.269     7.436E-22
  53518.337     7.403E-22
  53518.406     7.379E-22
  53518.474     7.366E-22
  53518.542     7.360E-22
  53518.611     7.369E-22
  53518.679     7.394E-22
  53518.748     7.429E-22
  53518.817     7.471E-22
  53518.885     7.504E-22
  53518.953     7.525E-22
  53519.022     7.526E-22
  53519.090     7.515E-22
  53519.159     7.487E-22
  53519.227     7.446E-22
  53519.296     7.390E-22
  53519.364     7.338E-22
  53519.432     7.288E-22
  53519.501     7.259E-22
  53519.570     7.238E-22
  53519.638     7.221E-22
  53519.707     7.193E-22
  53519.775     7.156E-22
  53519.843     7.112E-22
  53519.911     7.077E-22
  53519.980     7.053E-22
  53520.049     7.059E-22
  53520.117     7.078E-22
  53520.186     7.118E-22
  53520.254     7.156E-22
  53520.322     7.178E-22
  53520.391     7.178E-22
  53520.460     7.164E-22
  53520.528     7.144E-22
  53520.597     7.122E-22
  53520.665     7.085E-22
  53520.733     7.024E-22
  53520.801     6.943E-22
  53520.871     6.873E-22
  53520.939     6.802E-22
  53521.007     6.761E-22
  53521.076     6.727E-22
  53521.144     6.691E-22
  53521.212     6.668E-22
  53521.281     6.649E-22
  53521.350     6.642E-22
  53521.418     6.649E-22
  53521.487     6.645E-22
  53521.555     6.612E-22
  53521.623     6.564E-22
  53521.691     6.538E-22
  53521.761     6.544E-22
  53521.829     6.549E-22
  53521.897     6.542E-22
  53521.966     6.514E-22
  53522.034     6.503E-22
  53522.102     6.513E-22
  53522.170     6.519E-22
  53522.239     6.532E-22
  53522.307     6.550E-22
  53522.375     6.526E-22
  53522.443     6.477E-22
  53522.511     6.462E-22
  53522.579     6.473E-22
  53522.648     6.500E-22
  53522.716     6.528E-22
  53522.784     6.522E-22
  53522.852     6.513E-22
  53522.920     6.517E-22
  53522.988     6.528E-22
  53523.057     6.565E-22
  53523.125     6.625E-22
  53523.193     6.667E-22
  53523.261     6.693E-22
  53523.329     6.725E-22
  53523.397     6.762E-22
  53523.465     6.799E-22
  53523.534     6.820E-22
  53523.602     6.854E-22
  53523.670     6.914E-22
  53523.738     6.980E-22
  53523.806     7.018E-22
  53523.874     7.058E-22
  53523.943     7.106E-22
  53524.011     7.172E-22
  53524.078     7.299E-22
  53524.146     7.462E-22
  53524.213     7.592E-22
  53524.281     7.688E-22
  53524.349     7.780E-22
  53524.417     7.872E-22
  53524.485     7.970E-22
  53524.553     8.103E-22
  53524.620     8.226E-22
  53524.688     8.332E-22
  53524.756     8.505E-22
  53524.825     8.679E-22
  53524.892     8.801E-22
  53524.961     8.837E-22
  53525.028     8.858E-22
  53525.097     8.978E-22
  53525.165     9.048E-22
  53525.233     9.045E-22
  53525.301     8.995E-22
  53525.370     8.961E-22
  53525.438     8.847E-22
  53525.507     8.891E-22
  53525.576     8.944E-22
  53525.644     8.991E-22
  53525.713     9.099E-22
  53525.781     9.123E-22
  53525.850     9.230E-22
  53525.918     9.197E-22
  53525.987     9.344E-22
  53526.055     9.473E-22
  53526.124     9.608E-22
  53526.192     9.869E-22
  53526.261     1.004E-21
  53526.329     1.008E-21
  53526.398     1.013E-21
  53526.466     9.969E-22
  53526.535     9.879E-22
  53526.603     9.856E-22
  53526.672     9.707E-22
  53526.740     9.763E-22
  53526.809     9.718E-22
  53526.877     9.678E-22
  53526.946     9.722E-22
  53527.014     9.674E-22
  53527.083     9.555E-22
  53527.151     9.480E-22
  53527.220     9.497E-22
  53527.289     9.592E-22
  53527.357     9.611E-22
  53527.426     9.451E-22
  53527.494     9.370E-22
  53527.563     9.366E-22
  53527.631     9.333E-22
  53527.700     9.403E-22
  53527.768     9.460E-22
  53527.837     9.296E-22
  53527.905     9.286E-22
  53527.974     9.140E-22
  53528.042     9.080E-22
  53528.111     9.113E-22
  53528.179     9.173E-22
  53528.248     9.130E-22
  53528.316     9.317E-22
  53528.385     9.371E-22
  53528.453     9.320E-22
  53528.522     9.244E-22
  53528.590     9.364E-22
  53528.659     9.519E-22
  53528.728     9.759E-22
  53528.796     9.864E-22
  53528.865     9.826E-22
  53528.933     9.791E-22
  53529.002     9.563E-22
  53529.070     9.708E-22
  53529.139     9.911E-22
  53529.207     9.871E-22
  53529.276     1.002E-21
  53529.344     1.027E-21
  53529.413     1.031E-21
  53529.481     1.044E-21
  53529.550     1.057E-21
  53529.618     1.084E-21
  53529.687     1.099E-21
  53529.755     1.101E-21
  53529.824     1.096E-21
  53529.893     1.116E-21
  53529.961     1.133E-21
  53530.030     1.147E-21
  53530.098     1.164E-21
  53530.167     1.175E-21
  53530.235     1.173E-21
  53530.304     1.187E-21
  53530.372     1.204E-21
  53530.441     1.226E-21
  53530.509     1.243E-21
  53530.578     1.262E-21
  53530.646     1.262E-21
  53530.715     1.278E-21
  53530.783     1.308E-21
  53530.852     1.315E-21
  53530.920     1.319E-21
  53530.989     1.351E-21
  53531.058     1.381E-21
  53531.126     1.422E-21
  53531.195     1.446E-21
  53531.263     1.462E-21
  53531.332     1.496E-21
  53531.400     1.502E-21
  53531.469     1.547E-21
  53531.537     1.613E-21
  53531.606     1.664E-21
  53531.674     1.678E-21
  53531.743     1.734E-21
  53531.811     1.776E-21
  53531.880     1.811E-21
  53531.948     1.864E-21
  53532.017     1.911E-21
  53532.086     1.956E-21
  53532.154     2.026E-21
  53532.223     2.079E-21
  53532.291     2.114E-21
  53532.360     2.142E-21
  53532.428     2.172E-21
  53532.497     2.202E-21
  53532.565     2.256E-21
  53532.634     2.294E-21
  53532.702     2.315E-21
  53532.771     2.272E-21
  53532.839     2.247E-21
  53532.908     2.241E-21
  53532.976     2.237E-21
  53533.045     2.299E-21
  53533.114     2.336E-21
  53533.182     2.315E-21
  53533.251     2.293E-21
  53533.319     2.266E-21
  53533.388     2.249E-21
  53533.456     2.235E-21
  53533.525     2.238E-21
  53533.593     2.274E-21
  53533.662     2.301E-21
  53533.730     2.335E-21
  53533.799     2.341E-21
  53533.867     2.318E-21
  53533.936     2.307E-21
  53534.005     2.294E-21
  53534.073     2.312E-21
  53534.142     2.337E-21
  53534.210     2.332E-21
  53534.279     2.324E-21
  53534.347     2.345E-21
  53534.416     2.353E-21
  53534.484     2.339E-21
  53534.553     2.336E-21
  53534.621     2.354E-21
  53534.690     2.365E-21
  53534.758     2.354E-21
  53534.827     2.379E-21
  53534.896     2.365E-21
  53534.964     2.359E-21
  53535.033     2.378E-21
  53535.101     2.375E-21
  53535.170     2.422E-21
  53535.238     2.450E-21
  53535.307     2.498E-21
  53535.375     2.530E-21
  53535.444     2.546E-21
  53535.512     2.574E-21
  53535.581     2.617E-21
  53535.649     2.654E-21
  53535.718     2.643E-21
  53535.787     2.690E-21
  53535.855     2.785E-21
  53535.924     2.833E-21
  53535.992     2.799E-21
  53536.061     2.806E-21
  53536.129     2.880E-21
  53536.198     2.979E-21
  53536.266     3.055E-21
  53536.335     3.116E-21
  53536.403     3.152E-21
  53536.472     3.192E-21
  53536.541     3.283E-21
  53536.609     3.350E-21
  53536.678     3.385E-21
  53536.746     3.434E-21
  53536.815     3.540E-21
  53536.883     3.665E-21
  53536.952     3.795E-21
  53537.020     3.929E-21
  53537.089     3.936E-21
  53537.157     4.073E-21
  53537.226     4.138E-21
  53537.295     4.254E-21
  53537.363     4.376E-21
  53537.432     4.486E-21
  53537.500     4.557E-21
  53537.569     4.694E-21
  53537.637     4.854E-21
  53537.706     4.998E-21
  53537.774     5.145E-21
  53537.843     5.299E-21
  53537.980     5.611E-21
  53538.050     5.716E-21
  53538.121     5.914E-21
  53538.195     6.074E-21
  53538.317     6.443E-21
  53538.391     6.687E-21
  53538.467     6.926E-21
  53538.544     7.124E-21
  53538.648     7.598E-21
  53538.726     7.978E-21
  53538.805     8.259E-21
  53538.888     8.492E-21
  53538.973     8.751E-21
  53539.057     9.086E-21
  53539.140     9.504E-21
  53539.223     1.001E-20
  53539.307     1.062E-20
  53539.390     1.133E-20
  53539.473     1.192E-20
  53539.557     1.250E-20
  53539.640     1.334E-20
  53539.705     1.443E-20
  53539.788     1.549E-20
  53539.890     1.637E-20
  53539.955     1.736E-20
  53540.057     1.873E-20
  53540.122     2.020E-20
  53540.205     2.146E-20
  53540.288     2.283E-20
  53540.372     2.480E-20
  53540.446     2.741E-20
  53540.529     3.063E-20
  53540.607     3.401E-20
  53540.690     3.697E-20
  53540.773     3.929E-20
  53540.857     4.200E-20
  53540.940     4.549E-20
  53541.023     4.896E-20
  53541.107     5.179E-20
  53541.173     5.380E-20
  53541.273     5.498E-20
  53541.340     5.638E-20
  53541.423     5.838E-20
  53541.507     5.910E-20
  53541.590     5.802E-20
  53541.673     5.652E-20
  53541.757     5.567E-20
  53541.840     5.593E-20
  53541.923     5.713E-20
  53542.024     5.814E-20
  53542.090     5.769E-20
  53542.174     5.563E-20
  53542.257     5.369E-20
  53542.357     5.262E-20
  53542.440     5.236E-20
  53542.507     5.331E-20
  53542.607     5.544E-20
  53542.674     5.822E-20
  53542.774     6.131E-20
  53542.840     6.466E-20
  53542.924     6.685E-20
  53543.007     6.707E-20
  53543.090     6.595E-20
  53543.174     6.532E-20
  53543.257     6.578E-20
  53543.341     6.693E-20
  53543.424     6.806E-20
  53543.507     6.793E-20
  53543.591     6.664E-20
  53543.674     6.562E-20
  53543.757     6.501E-20
  53543.841     6.382E-20
  53543.924     6.156E-20
  53544.007     5.784E-20
  53544.091     5.354E-20
  53544.191     4.971E-20
  53544.274     4.667E-20
  53544.358     4.423E-20
  53544.441     4.157E-20
  53544.531     3.882E-20
  53544.608     3.655E-20
  53544.697     3.447E-20
  53544.775     3.231E-20
  53544.864     3.041E-20
  53544.947     2.866E-20
  53545.031     2.675E-20
  53545.123     2.473E-20
  53545.207     2.297E-20
  53545.290     2.136E-20
  53545.373     1.976E-20
  53545.457     1.843E-20
  53545.540     1.747E-20
  53545.624     1.676E-20
  53545.725     1.607E-20
  53545.809     1.543E-20
  53545.892     1.489E-20
  53545.975     1.425E-20
  53546.040     1.347E-20
  53546.142     1.263E-20
  53546.225     1.187E-20
  53546.309     1.132E-20
  53546.392     1.085E-20
  53546.476     1.027E-20
  53546.559     9.667E-21
  53546.642     9.189E-21
  53546.726     8.866E-21
  53546.809     8.549E-21
  53546.892     8.135E-21
  53546.976     7.665E-21
  53547.059     7.272E-21
  53547.143     6.970E-21
  53547.226     6.662E-21
  53547.309     6.594E-21
  53547.393     6.852E-21
  53547.476     7.075E-21
  53547.559     6.973E-21
  53547.643     6.611E-21
  53547.726     6.051E-21
  53547.810     5.427E-21
  53547.893     5.030E-21
  53547.976     5.011E-21
  53548.060     5.130E-21
  53548.143     5.090E-21
  53548.226     4.876E-21
  53548.310     4.622E-21
  53548.393     4.406E-21
  53548.558     4.306E-21
  53549.394     3.328E-21
  53550.229     2.370E-21
  53551.065     2.377E-21
  53551.638     1.966E-21
  53552.474     1.668E-21
  53553.309     1.398E-21
  53554.145     1.339E-21
  53554.981     1.374E-21
  53555.816     1.309E-21
  53556.652     1.117E-21
  53557.559     1.212E-21
  53558.324     1.170E-21
  53559.160     1.089E-21
  53559.995     1.206E-21
  53560.831     1.314E-21
  53561.667     1.152E-21
  53562.503     1.266E-21
  53563.339     1.251E-21
  53564.175     1.308E-21
  53565.011     1.513E-21
  53565.847     1.742E-21
  53566.683     1.768E-21
  53567.519     2.092E-21
  53568.355     2.358E-21
  53569.454     2.955E-21
  53570.290     3.642E-21
  53571.126     4.506E-21
  53571.834     6.568E-21
  53571.918     6.802E-21
  53572.001     7.252E-21
  53572.085     7.878E-21
  53572.168     8.270E-21
  53572.252     8.288E-21
  53572.335     8.339E-21
  53572.419     8.669E-21
  53572.502     9.073E-21
  53572.586     9.291E-21
  53572.669     9.475E-21
  53572.753     9.809E-21
  53572.836     1.017E-20
  53572.919     1.054E-20
  53573.003     1.116E-20
  53573.086     1.222E-20
  53573.152     1.344E-20
  53573.235     1.427E-20
  53573.318     1.478E-20
  53573.420     1.539E-20
  53573.485     1.602E-20
  53573.587     1.657E-20
  53573.652     1.748E-20
  53573.736     1.883E-20
  53573.819     2.044E-20
  53573.903     2.221E-20
  53573.986     2.409E-20
  53574.061     2.587E-20
  53574.144     2.752E-20
  53574.227     2.973E-20
  53574.311     3.262E-20
  53574.388     3.565E-20
  53574.472     3.841E-20
  53574.555     4.116E-20
  53574.639     4.460E-20
  53574.722     4.914E-20
  53574.789     5.410E-20
  53574.872     5.855E-20
  53574.956     6.259E-20
  53575.039     6.662E-20
  53575.123     7.005E-20
  53575.206     7.218E-20
  53575.290     7.367E-20
  53575.373     7.561E-20
  53575.457     7.814E-20
  53575.540     7.850E-20
  53575.624     7.640E-20
  53575.707     7.458E-20
  53575.790     7.408E-20
  53575.874     7.389E-20
  53575.957     7.314E-20
  53576.041     7.204E-20
  53576.124     7.191E-20
  53576.208     7.328E-20
  53576.291     7.514E-20
  53576.375     7.679E-20
  53576.458     7.821E-20
  53576.542     7.852E-20
  53576.625     7.802E-20
  53576.709     7.841E-20
  53576.792     7.953E-20
  53576.876     8.021E-20
  53576.959     8.038E-20
  53577.043     8.041E-20
  53577.126     7.994E-20
  53577.210     7.919E-20
  53577.293     7.778E-20
  53577.377     7.483E-20
  53577.460     7.127E-20
  53577.544     6.848E-20
  53577.627     6.614E-20
  53577.711     6.295E-20
  53577.794     5.915E-20
  53577.877     5.541E-20
  53577.978     5.163E-20
  53578.061     4.805E-20
  53578.145     4.488E-20
  53578.228     4.178E-20
  53578.312     3.859E-20
  53578.395     3.519E-20
  53578.479     3.216E-20
  53578.568     2.987E-20
  53578.652     2.810E-20
  53578.744     2.680E-20
  53578.828     2.575E-20
  53578.911     2.450E-20
  53578.995     2.320E-20
  53579.072     2.212E-20
  53579.162     2.079E-20
  53579.245     1.934E-20
  53579.329     1.807E-20
  53579.431     1.689E-20
  53579.514     1.596E-20
  53579.579     1.542E-20
  53579.663     1.480E-20
  53579.746     1.400E-20
  53579.848     1.335E-20
  53579.932     1.280E-20
  53580.015     1.206E-20
  53580.099     1.128E-20
  53580.182     1.057E-20
  53580.266     9.953E-21
  53580.349     9.558E-21
  53580.433     9.295E-21
  53580.516     9.077E-21
  53580.600     8.800E-21
  53580.683     8.405E-21
  53580.767     7.966E-21
  53580.850     7.575E-21
  53580.934     7.329E-21
  53581.017     7.243E-21
  53581.101     7.238E-21
  53581.184     7.259E-21
  53581.268     7.033E-21
  53581.351     6.621E-21
  53581.435     6.238E-21
  53581.518     5.905E-21
  53581.602     5.700E-21
  53581.685     5.602E-21
  53581.769     5.491E-21
  53581.852     5.461E-21
  53581.936     5.482E-21
  53582.019     5.356E-21
  53582.103     5.132E-21
  53582.186     5.023E-21
  53582.270     4.905E-21
  53582.353     4.660E-21
  53582.437     4.457E-21
  53582.520     4.367E-21
  53582.835     4.115E-21
  53583.671     3.302E-21
  53584.508     2.769E-21
  53585.344     2.425E-21
  53585.918     2.252E-21
  53586.755     2.097E-21
  53587.591     2.016E-21
  53588.428     1.726E-21
  53589.264     1.718E-21
  53590.101     1.907E-21
  53590.938     2.228E-21
  53591.774     2.119E-21
  53592.611     2.184E-21
  53593.448     2.097E-21
  53594.285     2.252E-21
  53595.384     2.426E-21
  53596.221     2.658E-21
  53597.058     3.106E-21
  53597.895     3.768E-21
  53598.732     4.345E-21
  53598.892     4.567E-21
  53598.975     4.823E-21
  53599.059     5.111E-21
  53599.142     5.289E-21
  53599.226     5.435E-21
  53599.309     5.655E-21
  53599.393     5.909E-21
  53599.477     6.118E-21
  53599.560     6.329E-21
  53599.644     6.516E-21
  53599.727     6.806E-21
  53599.811     7.201E-21
  53599.894     7.427E-21
  53599.978     7.560E-21
  53600.061     7.713E-21
  53600.145     7.945E-21
  53600.229     8.286E-21
  53600.312     8.678E-21
  53600.396     9.053E-21
  53600.479     9.264E-21
  53600.563     9.390E-21
  53600.646     9.582E-21
  53600.730     9.846E-21
  53600.814     1.032E-20
  53600.897     1.097E-20
  53600.981     1.155E-20
  53601.064     1.191E-20
  53601.148     1.223E-20
  53601.231     1.274E-20
  53601.315     1.346E-20
  53601.399     1.441E-20
  53601.482     1.550E-20
  53601.566     1.647E-20
  53601.649     1.720E-20
  53601.714     1.804E-20
  53601.816     1.932E-20
  53601.882     2.070E-20
  53601.965     2.184E-20
  53602.049     2.303E-20
  53602.132     2.452E-20
  53602.216     2.617E-20
  53602.290     2.794E-20
  53602.368     2.977E-20
  53602.457     3.206E-20
  53602.535     3.509E-20
  53602.618     3.827E-20
  53602.702     4.141E-20
  53602.786     4.452E-20
  53602.869     4.766E-20
  53602.953     5.098E-20
  53603.019     5.437E-20
  53603.103     5.789E-20
  53603.187     6.185E-20
  53603.270     6.591E-20
  53603.354     7.006E-20
  53603.437     7.382E-20
  53603.521     7.636E-20
  53603.604     7.789E-20
  53603.688     7.945E-20
  53603.772     8.228E-20
  53603.855     8.670E-20
  53603.939     9.132E-20
  53604.022     9.403E-20
  53604.106     9.382E-20
  53604.189     9.220E-20
  53604.273     9.143E-20
  53604.357     9.138E-20
  53604.440     9.092E-20
  53604.524     8.999E-20
  53604.607     8.889E-20
  53604.691     8.769E-20
  53604.774     8.705E-20
  53604.858     8.754E-20
  53604.942     8.882E-20
  53605.025     8.959E-20
  53605.109     8.994E-20
  53605.192     9.029E-20
  53605.276     8.905E-20
  53605.360     8.520E-20
  53605.443     8.105E-20
  53605.527     7.855E-20
  53605.610     7.651E-20
  53605.694     7.274E-20
  53605.777     6.777E-20
  53605.861     6.342E-20
  53605.961     5.983E-20
  53606.028     5.647E-20
  53606.129     5.309E-20
  53606.212     4.988E-20
  53606.296     4.616E-20
  53606.379     4.161E-20
  53606.469     3.691E-20
  53606.553     3.315E-20
  53606.636     3.093E-20
  53606.720     2.980E-20
  53606.803     2.895E-20
  53606.887     2.782E-20
  53606.980     2.593E-20
  53607.063     2.362E-20
  53607.147     2.164E-20
  53607.231     2.031E-20
  53607.314     1.940E-20
  53607.398     1.860E-20
  53607.481     1.772E-20
  53607.583     1.686E-20
  53607.667     1.620E-20
  53607.732     1.581E-20
  53607.816     1.529E-20
  53607.918     1.432E-20
  53608.001     1.332E-20
  53608.085     1.270E-20
  53608.168     1.237E-20
  53608.252     1.204E-20
  53608.336     1.162E-20
  53608.419     1.133E-20
  53608.503     1.112E-20
  53608.586     1.071E-20
  53608.670     1.026E-20
  53608.754     9.918E-21
  53608.837     9.684E-21
  53608.921     9.334E-21
  53609.004     8.810E-21
  53609.088     8.396E-21
  53609.171     8.155E-21
  53609.255     7.960E-21
  53609.339     7.799E-21
  53609.422     7.681E-21
  53609.506     7.590E-21
  53609.589     7.478E-21
  53609.673     7.471E-21
  53609.757     7.593E-21
  53609.840     7.495E-21
  53609.924     7.050E-21
  53610.007     6.483E-21
  53610.091     6.243E-21
  53610.175     6.288E-21
  53610.258     6.135E-21
  53610.342     5.782E-21
  53610.425     5.377E-21
  53610.509     4.951E-21
  53610.593     4.651E-21
  53610.676     4.594E-21
  53610.760     4.711E-21
  53610.843     4.914E-21
  53610.927     5.076E-21
  53611.011     4.991E-21
  53611.094     4.669E-21
  53611.178     4.383E-21
  53611.261     4.332E-21
  53611.345     4.283E-21
  53611.429     4.235E-21
  53611.512     4.253E-21
  53611.596     4.094E-21
  53611.679     3.731E-21
  53611.763     3.427E-21
  53611.847     3.348E-21
  53611.930     3.369E-21
  53612.014     3.371E-21
  53612.097     3.387E-21
  53612.181     3.476E-21
  53612.265     3.712E-21
  53612.348     3.927E-21
  53612.432     4.077E-21
  53612.515     4.116E-21
  53612.599     3.918E-21
  53612.683     3.620E-21
  53612.766     3.476E-21
  53612.850     3.579E-21
  53612.934     3.814E-21
  53613.017     3.891E-21
  53613.101     3.643E-21
  53613.184     3.265E-21
  53613.268     3.076E-21
  53613.352     3.095E-21
  53613.435     3.039E-21
  53613.519     2.965E-21
  53613.602     3.029E-21
  53613.686     3.162E-21
  53613.770     3.131E-21
  53613.853     2.986E-21
  53613.937     3.115E-21
  53614.020     3.393E-21
  53614.104     3.373E-21
  53614.188     3.156E-21
  53614.271     3.126E-21
  53614.355     3.096E-21
  53614.438     3.002E-21
  53614.522     2.998E-21
  53614.606     3.094E-21
  53614.689     3.230E-21
  53614.773     3.266E-21
  53614.857     3.243E-21
  53614.940     3.249E-21
  53615.024     3.256E-21
  53615.107     3.239E-21
  53615.191     3.204E-21
  53615.275     3.325E-21
  53615.358     3.543E-21
  53615.442     3.459E-21
  53615.525     3.143E-21
  53615.609     3.083E-21
  53615.693     3.341E-21
  53615.776     3.616E-21
  53615.860     3.828E-21
  53615.944     4.111E-21
  53616.027     4.300E-21
  53616.111     4.149E-21
  53616.194     3.873E-21
  53616.278     3.797E-21
  53616.362     3.898E-21
  53616.445     4.021E-21
  53616.529     4.206E-21
  53616.613     4.519E-21
  53616.696     4.755E-21
  53616.780     4.813E-21
  53616.863     4.911E-21
  53616.947     5.163E-21
  53617.031     5.498E-21
  53617.114     5.768E-21
  53617.198     5.808E-21
  53617.281     5.677E-21
  53617.365     5.546E-21
  53617.449     5.407E-21
  53617.532     5.267E-21
  53617.616     5.244E-21
  53617.700     5.368E-21
  53617.783     5.472E-21
  53617.867     5.338E-21
  53617.950     4.942E-21
  53618.034     4.568E-21
  53618.118     4.475E-21
  53618.201     4.556E-21
  53618.285     4.561E-21
  53618.369     4.573E-21
  53618.452     4.649E-21
  53618.536     4.745E-21
  53618.619     4.760E-21
  53618.703     4.667E-21
  53618.787     4.544E-21
  53618.870     4.338E-21
  53618.954     4.204E-21
  53619.038     4.433E-21
  53619.121     4.815E-21
  53619.205     4.936E-21
  53619.289     4.724E-21
  53619.372     4.437E-21
  53619.456     4.282E-21
  53619.539     4.284E-21
  53619.623     4.348E-21
  53619.707     4.380E-21
  53619.790     4.465E-21
  53619.874     4.772E-21
  53619.958     5.069E-21
  53620.041     4.979E-21
  53620.125     4.725E-21
  53620.208     4.651E-21
  53620.292     4.697E-21
  53620.376     4.681E-21
  53620.459     4.617E-21
  53620.543     4.649E-21
  53620.627     4.989E-21
  53620.710     5.421E-21
  53620.794     5.629E-21
  53620.878     5.529E-21
  53620.961     5.367E-21
  53621.045     5.339E-21
  53621.128     5.414E-21
  53621.212     5.638E-21
  53621.296     5.864E-21
  53621.379     5.885E-21
  53621.463     5.816E-21
  53621.547     5.823E-21
  53621.630     5.825E-21
  53621.714     5.776E-21
  53621.798     6.042E-21
  53621.881     6.618E-21
  53621.965     7.021E-21
  53622.048     7.139E-21
  53622.132     7.291E-21
  53622.216     7.571E-21
  53622.299     7.740E-21
  53622.383     7.876E-21
  53622.467     8.240E-21
  53622.550     8.705E-21
  53622.634     9.054E-21
  53622.718     9.331E-21
  53622.801     9.547E-21
  53622.885     9.741E-21
  53622.969     1.009E-20
  53623.052     1.054E-20
  53623.136     1.084E-20
  53623.219     1.117E-20
  53623.303     1.156E-20
  53623.387     1.201E-20
  53623.470     1.269E-20
  53623.554     1.359E-20
  53623.619     1.440E-20
  53623.721     1.515E-20
  53623.805     1.628E-20
  53623.870     1.769E-20
  53623.972     1.885E-20
  53624.056     1.957E-20
  53624.121     2.022E-20
  53624.205     2.122E-20
  53624.288     2.251E-20
  53624.372     2.393E-20
  53624.456     2.554E-20
  53624.524     2.755E-20
  53624.614     2.992E-20
  53624.697     3.272E-20
  53624.775     3.531E-20
  53624.859     3.719E-20
  53624.942     3.884E-20
  53625.026     4.069E-20
  53625.110     4.274E-20
  53625.176     4.538E-20
  53625.260     4.916E-20
  53625.361     5.378E-20
  53625.427     5.899E-20
  53625.511     6.403E-20
  53625.595     6.885E-20
  53625.678     7.384E-20
  53625.762     7.906E-20
  53625.846     8.373E-20
  53625.929     8.751E-20
  53626.013     9.020E-20
  53626.097     9.202E-20
  53626.180     9.382E-20
  53626.264     9.618E-20
  53626.348     9.870E-20
  53626.436     1.007E-19
  53626.515     1.010E-19
  53626.603     1.004E-19
  53626.687     9.969E-20
  53626.766     9.823E-20
  53626.849     9.700E-20
  53626.933     9.534E-20
  53627.017     9.317E-20
  53627.100     9.149E-20
  53627.184     8.961E-20
  53627.268     8.605E-20
  53627.351     8.170E-20
  53627.435     7.787E-20
  53627.519     7.485E-20
  53627.602     7.140E-20
  53627.686     6.769E-20
  53627.770     6.416E-20
  53627.853     6.045E-20
  53627.954     5.608E-20
  53628.038     5.167E-20
  53628.121     4.785E-20
  53628.205     4.490E-20
  53628.289     4.269E-20
  53628.372     4.017E-20
  53628.462     3.748E-20
  53628.540     3.539E-20
  53628.623     3.352E-20
  53628.707     3.117E-20
  53628.797     2.860E-20
  53628.880     2.645E-20
  53628.964     2.504E-20
  53629.057     2.406E-20
  53629.131     2.281E-20
  53629.224     2.127E-20
  53629.308     2.010E-20
  53629.391     1.917E-20
  53629.475     1.811E-20
  53629.559     1.714E-20
  53629.661     1.655E-20
  53629.745     1.628E-20
  53629.810     1.585E-20
  53629.912     1.503E-20
  53629.996     1.422E-20
  53630.079     1.352E-20
  53630.163     1.280E-20
  53630.247     1.211E-20
  53630.330     1.157E-20
  53630.414     1.109E-20
  53630.498     1.065E-20
  53630.581     1.026E-20
  53630.665     9.900E-21
  53630.749     9.638E-21
  53630.832     9.555E-21
  53630.916     9.523E-21
  53631.000     9.273E-21
  53631.083     8.724E-21
  53631.167     8.109E-21
  53631.251     7.801E-21
  53631.334     7.762E-21
  53631.418     7.713E-21
  53631.502     7.548E-21
  53631.585     7.237E-21
  53631.669     6.782E-21
  53631.753     6.438E-21
  53631.836     6.340E-21
  53631.920     6.445E-21
  53632.004     6.451E-21
  53632.087     6.187E-21
  53632.171     5.917E-21
  53632.255     5.792E-21
  53632.338     5.760E-21
  53632.422     5.764E-21
  53632.506     5.624E-21
  53632.589     5.344E-21
  53632.673     5.218E-21
  53632.757     5.327E-21
  53632.840     5.333E-21
  53632.924     5.045E-21
  53633.008     4.811E-21
  53633.091     4.847E-21
  53633.175     4.906E-21
  53633.259     4.926E-21
  53633.342     4.945E-21
  53633.426     4.955E-21
  53633.510     4.807E-21
  53633.594     4.534E-21
  53633.677     4.436E-21
  53633.761     4.480E-21
  53633.845     4.544E-21
  53633.928     4.666E-21
  53634.012     4.810E-21
  53634.096     4.726E-21
  53634.179     4.476E-21
  53634.263     4.275E-21
  53634.347     4.145E-21
  53634.430     4.058E-21
  53634.514     4.043E-21
  53634.598     4.078E-21
  53634.681     4.047E-21
  53634.765     3.944E-21
  53634.849     4.043E-21
  53634.932     4.352E-21
  53635.016     4.630E-21
  53635.100     4.663E-21
  53635.183     4.495E-21
  53635.267     4.439E-21
  53635.351     4.381E-21
  53635.435     4.216E-21
  53635.518     4.233E-21
  53635.602     4.385E-21
  53635.686     4.419E-21
  53635.769     4.357E-21
  53635.853     4.385E-21
  53635.937     4.454E-21
  53636.020     4.430E-21
  53636.104     4.380E-21
  53636.188     4.497E-21
  53636.271     4.749E-21
  53636.355     4.904E-21
  53636.439     4.967E-21
  53636.523     4.984E-21
  53636.606     4.950E-21
  53636.690     5.014E-21
  53636.774     5.157E-21
  53636.857     5.277E-21
  53636.941     5.288E-21
  53637.025     5.142E-21
  53637.108     5.015E-21
  53637.192     5.082E-21
  53637.276     5.236E-21
  53637.359     5.423E-21
  53637.443     5.546E-21
  53637.527     5.400E-21
  53637.611     5.157E-21
  53637.694     5.202E-21
  53637.778     5.633E-21
  53637.862     6.189E-21
  53637.945     6.522E-21
  53638.029     6.711E-21
  53638.113     6.919E-21
  53638.196     7.172E-21
  53638.280     7.585E-21
  53638.364     8.053E-21
  53638.447     8.349E-21
  53638.531     8.476E-21
  53638.615     8.591E-21
  53638.699     8.675E-21
  53638.782     8.824E-21
  53638.866     9.189E-21
  53638.950     9.634E-21
  53639.033     1.004E-20
  53639.117     1.039E-20
  53639.201     1.059E-20
  53639.284     1.078E-20
  53639.368     1.114E-20
  53639.452     1.129E-20
  53639.536     1.101E-20
  53639.619     1.110E-20
  53639.703     1.190E-20
  53639.787     1.286E-20
  53639.870     1.355E-20
  53639.954     1.413E-20
  53640.038     1.481E-20
  53640.121     1.577E-20
  53640.187     1.695E-20
  53640.289     1.801E-20
  53640.354     1.856E-20
  53640.456     1.890E-20
  53640.522     1.974E-20
  53640.624     2.115E-20
  53640.707     2.261E-20
  53640.773     2.349E-20
  53640.856     2.360E-20
  53640.931     2.384E-20
  53641.015     2.493E-20
  53641.098     2.678E-20
  53641.182     2.943E-20
  53641.266     3.242E-20
  53641.343     3.478E-20
  53641.427     3.667E-20
  53641.511     3.878E-20
  53641.594     4.165E-20
  53641.661     4.496E-20
  53641.745     4.816E-20
  53641.829     5.127E-20
  53641.912     5.481E-20
  53641.996     5.911E-20
  53642.080     6.394E-20
  53642.164     6.884E-20
  53642.247     7.319E-20
  53642.331     7.681E-20
  53642.415     8.050E-20
  53642.498     8.417E-20
  53642.582     8.625E-20
  53642.666     8.678E-20
  53642.750     8.720E-20
  53642.833     8.744E-20
  53642.917     8.696E-20
  53643.001     8.527E-20
  53643.084     8.247E-20
  53643.168     7.963E-20
  53643.252     7.743E-20
  53643.336     7.522E-20
  53643.419     7.205E-20
  53643.503     6.907E-20
  53643.587     6.645E-20
  53643.670     6.302E-20
  53643.771     5.897E-20
  53643.838     5.545E-20
  53643.922     5.236E-20
  53644.022     4.972E-20
  53644.106     4.761E-20
  53644.190     4.540E-20
  53644.273     4.257E-20
  53644.357     3.938E-20
  53644.441     3.628E-20
  53644.524     3.379E-20
  53644.608     3.182E-20
  53644.698     2.988E-20
  53644.782     2.810E-20
  53644.865     2.639E-20
  53644.958     2.449E-20
  53645.042     2.269E-20
  53645.144     2.137E-20
  53645.210     2.045E-20
  53645.293     1.966E-20
  53645.377     1.892E-20
  53645.461     1.812E-20
  53645.544     1.753E-20
  53645.628     1.709E-20
  53645.712     1.657E-20
  53645.814     1.573E-20
  53645.898     1.473E-20
  53645.981     1.372E-20
  53646.065     1.284E-20
  53646.149     1.216E-20
  53646.233     1.168E-20
  53646.316     1.142E-20
  53646.400     1.116E-20
  53646.484     1.068E-20
  53646.568     1.019E-20
  53646.651     9.866E-21
  53646.735     9.620E-21
  53646.819     9.380E-21
  53646.902     9.172E-21
  53646.986     9.216E-21
  53647.070     9.392E-21
  53647.154     9.545E-21
  53647.237     9.612E-21
  53647.321     9.447E-21
  53647.405     9.049E-21
  53647.489     8.759E-21
  53647.572     8.621E-21
  53647.656     8.418E-21
  53647.740     8.022E-21
  53647.823     7.564E-21
  53647.907     7.248E-21
  53647.991     7.204E-21
  53648.075     7.349E-21
  53648.158     7.475E-21
  53648.242     7.442E-21
  53648.326     7.269E-21
  53648.410     7.185E-21
  53648.493     7.305E-21
  53648.577     7.444E-21
  53648.661     7.495E-21
  53648.744     7.428E-21
  53648.828     7.425E-21
  53648.912     7.688E-21
  53648.996     8.076E-21
  53649.079     8.270E-21
  53649.163     8.059E-21
  53649.247     7.779E-21
  53649.331     7.739E-21
  53649.414     7.855E-21
  53649.498     8.003E-21
  53649.582     8.203E-21
  53649.666     8.631E-21
  53649.749     9.206E-21
  53649.833     9.711E-21
  53649.917     1.002E-20
  53650.001     1.004E-20
  53650.084     9.834E-21
  53650.168     9.908E-21
  53650.252     1.039E-20
  53650.335     1.095E-20
  53650.419     1.162E-20
  53650.503     1.245E-20
  53650.587     1.326E-20
  53650.670     1.390E-20
  53650.754     1.427E-20
  53650.838     1.458E-20
  53650.922     1.517E-20
  53651.005     1.581E-20
  53651.089     1.637E-20
  53651.173     1.691E-20
  53651.257     1.741E-20
  53651.322     1.813E-20
  53651.424     1.929E-20
  53651.508     2.049E-20
  53651.573     2.155E-20
  53651.657     2.292E-20
  53651.741     2.463E-20
  53651.815     2.589E-20
  53651.899     2.663E-20
  53651.985     2.753E-20
  53652.066     2.886E-20
  53652.150     3.084E-20
  53652.228     3.324E-20
  53652.318     3.524E-20
  53652.395     3.712E-20
  53652.479     3.981E-20
  53652.563     4.282E-20
  53652.647     4.555E-20
  53652.713     4.862E-20
  53652.797     5.155E-20
  53652.881     5.283E-20
  53652.965     5.320E-20
  53653.048     5.376E-20
  53653.132     5.478E-20
  53653.216     5.645E-20
  53653.300     5.723E-20
  53653.383     5.598E-20
  53653.467     5.350E-20
  53653.568     5.111E-20
  53653.652     4.951E-20
  53653.735     4.827E-20
  53653.819     4.628E-20
  53653.903     4.330E-20
  53653.987     4.028E-20
  53654.070     3.772E-20
  53654.154     3.574E-20
  53654.238     3.442E-20
  53654.322     3.308E-20
  53654.405     3.095E-20
  53654.495     2.842E-20
  53654.579     2.645E-20
  53654.663     2.579E-20
  53654.746     2.621E-20
  53654.830     2.662E-20
  53654.914     2.635E-20
  53655.007     2.548E-20
  53655.091     2.431E-20
  53655.174     2.321E-20
  53655.258     2.266E-20
  53655.342     2.238E-20
  53655.426     2.197E-20
  53655.509     2.177E-20
  53655.593     2.183E-20
  53655.677     2.157E-20
  53655.761     2.099E-20
  53655.845     2.069E-20
  53655.928     2.082E-20
  53656.012     2.119E-20
  53656.114     2.159E-20
  53656.180     2.186E-20
  53656.263     2.212E-20
  53656.347     2.229E-20
  53656.431     2.231E-20
  53656.515     2.205E-20
  53656.598     2.171E-20
  53656.682     2.179E-20
  53656.766     2.232E-20
  53656.840     2.288E-20
  53656.933     2.338E-20
  53657.008     2.396E-20
  53657.101     2.466E-20
  53657.185     2.519E-20
  53657.259     2.552E-20
  53657.345     2.577E-20
  53657.427     2.586E-20
  53657.520     2.591E-20
  53657.588     2.582E-20
  53657.687     2.542E-20
  53657.762     2.471E-20
  53657.846     2.379E-20
  53657.939     2.274E-20
  53658.022     2.125E-20
  53658.106     1.938E-20
  53658.190     1.789E-20
  53658.292     1.704E-20
  53658.357     1.638E-20
  53658.460     1.561E-20
  53658.543     1.474E-20
  53658.627     1.387E-20
  53658.711     1.306E-20
  53658.795     1.226E-20
  53658.878     1.154E-20
  53658.962     1.100E-20
  53659.046     1.048E-20
  53659.130     1.010E-20
  53659.297     9.681E-21
  53659.382     9.332E-21
  53659.466     9.215E-21
  53659.548     9.158E-21
  53659.628     8.827E-21
  53659.708     8.444E-21
  53659.805     8.124E-21
  53659.885     7.951E-21
  53659.964     7.794E-21
  53660.041     7.629E-21
  53660.149     7.202E-21
  53660.227     6.820E-21
  53660.304     6.402E-21
  53660.378     6.044E-21
  53660.451     5.805E-21
  53660.573     5.474E-21
  53660.647     5.325E-21
  53660.719     5.152E-21
  53660.790     4.952E-21
  53660.860     4.703E-21
  53660.995     4.270E-21
  53661.065     4.080E-21
  53661.134     3.999E-21
  53661.204     3.921E-21
  53661.273     3.857E-21
  53661.342     3.733E-21
  53661.411     3.610E-21
  53661.480     3.506E-21
  53661.550     3.374E-21
  53661.619     3.294E-21
  53661.688     3.169E-21
  53661.757     3.077E-21
  53661.826     2.983E-21
  53661.896     2.927E-21
  53661.965     2.907E-21
  53662.034     2.868E-21
  53662.103     2.802E-21
  53662.173     2.695E-21
  53662.242     2.596E-21
  53662.311     2.567E-21
  53662.380     2.483E-21
  53662.449     2.410E-21
  53662.519     2.347E-21
  53662.588     2.298E-21
  53662.657     2.278E-21
  53662.726     2.225E-21
  53662.796     2.165E-21
  53662.865     2.103E-21
  53662.934     2.068E-21
  53663.003     2.039E-21
  53663.072     2.018E-21
  53663.142     2.002E-21
  53663.211     1.985E-21
  53663.280     1.967E-21
  53663.349     1.938E-21
  53663.418     1.889E-21
  53663.488     1.865E-21
  53663.557     1.837E-21
  53663.626     1.824E-21
  53663.695     1.810E-21
  53663.765     1.783E-21
  53663.834     1.758E-21
  53663.903     1.729E-21
  53663.972     1.704E-21
  53664.041     1.696E-21
  53664.111     1.685E-21
  53664.180     1.668E-21
  53664.249     1.661E-21
  53664.318     1.671E-21
  53664.388     1.674E-21
  53664.457     1.652E-21
  53664.526     1.642E-21
  53664.595     1.666E-21
  53664.664     1.640E-21
  53664.734     1.622E-21
  53664.803     1.616E-21
  53664.872     1.613E-21
  53664.941     1.629E-21
  53665.010     1.634E-21
  53665.080     1.650E-21
  53665.149     1.681E-21
  53665.218     1.702E-21
  53665.287     1.755E-21
  53665.357     1.791E-21
  53665.426     1.817E-21
  53665.495     1.863E-21
  53665.564     1.910E-21
  53665.633     1.957E-21
  53665.703     2.002E-21
  53665.772     2.044E-21
  53665.841     2.068E-21
  53665.910     2.106E-21
  53665.979     2.117E-21
  53666.049     2.111E-21
  53666.118     2.108E-21
  53666.187     2.089E-21
  53666.256     2.078E-21
  53666.326     2.080E-21
  53666.395     2.084E-21
  53666.464     2.084E-21
  53666.533     2.091E-21
  53666.602     2.087E-21
  53666.672     2.052E-21
  53666.741     2.031E-21
  53666.810     2.020E-21
  53666.879     2.017E-21
  53666.949     2.000E-21
  53667.018     1.974E-21
  53667.087     1.958E-21
  53667.156     1.944E-21
  53667.225     1.924E-21
  53667.295     1.884E-21
  53667.364     1.822E-21
  53667.433     1.752E-21
  53667.502     1.712E-21
  53667.571     1.656E-21
  53667.641     1.581E-21
  53667.710     1.544E-21
  53667.779     1.493E-21
  53667.848     1.433E-21
  53667.918     1.406E-21
  53667.987     1.365E-21
  53668.056     1.321E-21
  53668.125     1.287E-21
  53668.194     1.256E-21
  53668.264     1.218E-21
  53668.333     1.183E-21
  53668.402     1.157E-21
  53668.471     1.127E-21
  53668.540     1.105E-21
  53668.610     1.090E-21
  53668.679     1.080E-21
  53668.748     1.040E-21
  53668.817     1.009E-21
  53668.887     1.002E-21
  53668.956     9.969E-22
  53669.025     9.799E-22
  53669.094     9.392E-22
  53669.163     9.169E-22
  53669.233     9.108E-22
  53669.302     9.136E-22
  53669.371     9.286E-22
  53669.440     9.129E-22
  53669.509     8.660E-22
  53669.579     8.545E-22
  53669.648     8.393E-22
  53669.717     8.425E-22
  53669.786     8.356E-22
  53669.855     8.195E-22
  53669.925     8.055E-22
  53669.994     7.950E-22
  53670.063     7.920E-22
  53670.132     7.783E-22
  53670.202     7.662E-22
  53670.270     7.473E-22
  53670.339     7.299E-22
  53670.408     7.182E-22
  53670.477     7.107E-22
  53670.547     7.055E-22
  53670.615     7.048E-22
  53670.684     6.888E-22
  53670.753     6.836E-22
  53670.822     6.840E-22
  53670.891     6.787E-22
  53670.960     6.721E-22
  53671.029     6.748E-22
  53671.098     6.800E-22
  53671.167     6.746E-22
  53671.236     6.814E-22
  53671.305     6.741E-22
  53671.374     6.608E-22
  53671.442     6.583E-22
  53671.512     6.516E-22
  53671.581     6.452E-22
  53671.649     6.456E-22
  53671.718     6.535E-22
  53671.787     6.568E-22
  53671.856     6.761E-22
  53671.925     6.734E-22
  53671.994     6.735E-22
  53672.062     6.693E-22
  53672.132     6.653E-22
  53672.200     6.579E-22
  53672.269     6.487E-22
  53672.338     6.455E-22
  53672.406     6.455E-22
  53672.476     6.388E-22
  53672.544     6.360E-22
  53672.612     6.346E-22
  53672.681     6.298E-22
  53672.750     6.197E-22
  53672.819     6.081E-22
  53672.887     5.983E-22
  53672.956     5.932E-22
  53673.025     5.924E-22
  53673.093     5.811E-22
  53673.162     5.729E-22
  53673.231     5.677E-22
  53673.300     5.629E-22
  53673.368     5.641E-22
  53673.437     5.675E-22
  53673.506     5.662E-22
  53673.574     5.595E-22
  53673.643     5.505E-22
  53673.711     5.431E-22
  53673.780     5.376E-22
  53673.849     5.325E-22
  53673.917     5.295E-22
  53674.055     5.238E-22
  53674.124     5.202E-22
  53674.193     5.180E-22
  53674.262     5.179E-22
  53674.331     5.166E-22
  53674.400     5.109E-22
  53674.469     5.038E-22
  53674.538     4.977E-22
  53674.607     4.942E-22
  53674.676     4.927E-22
  53674.745     4.900E-22
  53674.814     4.847E-22
  53674.883     4.784E-22
  53674.952     4.713E-22
  53675.021     4.654E-22
  53675.090     4.609E-22
  53675.159     4.562E-22
  53675.228     4.522E-22
  53675.297     4.486E-22
  53675.366     4.478E-22
  53675.435     4.466E-22
  53675.504     4.427E-22
  53675.573     4.378E-22
  53675.642     4.317E-22
  53675.711     4.243E-22
  53675.780     4.187E-22
  53675.849     4.144E-22
  53675.918     4.117E-22
  53675.987     4.106E-22
  53676.056     4.109E-22
  53676.125     4.101E-22
  53676.194     4.088E-22
  53676.263     4.078E-22
  53676.332     4.073E-22
  53676.401     4.067E-22
  53676.470     4.049E-22
  53676.539     4.019E-22
  53676.608     3.994E-22
  53676.677     3.965E-22
  53676.746     3.935E-22
  53676.815     3.908E-22
  53676.884     3.888E-22
  53676.953     3.870E-22
  53677.022     3.854E-22
  53677.091     3.831E-22
  53677.160     3.790E-22
  53677.229     3.756E-22
  53677.298     3.733E-22
  53677.367     3.719E-22
  53677.436     3.714E-22
  53677.505     3.716E-22
  53677.574     3.719E-22
  53677.643     3.707E-22
  53677.712     3.687E-22
  53677.781     3.665E-22
  53677.850     3.637E-22
  53677.919     3.611E-22
  53677.988     3.588E-22
  53678.057     3.573E-22
  53678.126     3.556E-22
  53678.195     3.524E-22
  53678.264     3.495E-22
  53678.333     3.474E-22
  53678.402     3.453E-22
  53678.471     3.439E-22
  53678.540     3.441E-22
  53678.609     3.444E-22
  53678.678     3.449E-22
  53678.747     3.439E-22
  53678.816     3.420E-22
  53678.885     3.409E-22
  53678.954     3.400E-22
  53679.023     3.393E-22
  53679.092     3.388E-22
  53679.161     3.369E-22
  53679.230     3.331E-22
  53679.299     3.302E-22
  53679.368     3.287E-22
  53679.437     3.291E-22
  53679.506     3.301E-22
  53679.575     3.316E-22
  53679.644     3.325E-22
  53679.713     3.331E-22
  53679.782     3.329E-22
  53679.851     3.319E-22
  53679.920     3.305E-22
  53679.989     3.292E-22
  53680.058     3.276E-22
  53680.127     3.258E-22
  53680.197     3.241E-22
  53680.266     3.235E-22
  53680.335     3.223E-22
  53680.404     3.216E-22
  53680.473     3.225E-22
  53680.542     3.226E-22
  53680.611     3.219E-22
  53680.680     3.210E-22
  53680.749     3.193E-22
  53680.818     3.182E-22
  53680.887     3.175E-22
  53680.956     3.181E-22
  53681.025     3.187E-22
  53681.094     3.183E-22
  53681.163     3.181E-22
  53681.232     3.179E-22
  53681.301     3.175E-22
  53681.370     3.174E-22
  53681.439     3.174E-22
  53681.508     3.173E-22
  53681.577     3.166E-22
  53681.646     3.154E-22
  53681.715     3.131E-22
  53681.784     3.119E-22
  53681.853     3.124E-22
  53681.922     3.133E-22
  53681.991     3.128E-22
  53682.060     3.107E-22
  53682.129     3.085E-22
  53682.198     3.068E-22
  53682.266     3.061E-22
  53682.335     3.059E-22
  53682.404     3.049E-22
  53682.473     3.040E-22
  53682.541     3.036E-22
  53682.610     3.036E-22
  53682.679     3.031E-22
  53682.748     3.023E-22
  53682.816     3.017E-22
  53682.885     3.011E-22
  53682.954     3.005E-22
  53683.023     3.000E-22
  53683.092     2.989E-22
  53683.160     2.976E-22
  53683.229     2.968E-22
  53683.298     2.963E-22
  53683.367     2.951E-22
  53683.435     2.938E-22
  53683.504     2.933E-22
  53683.573     2.930E-22
  53683.642     2.932E-22
  53683.710     2.932E-22
  53683.779     2.931E-22
  53683.848     2.939E-22
  53683.917     2.950E-22
  53683.986     2.953E-22
  53684.054     2.953E-22
  53684.123     2.952E-22
  53684.192     2.951E-22
  53684.261     2.948E-22
  53684.329     2.941E-22
  53684.398     2.934E-22
  53684.467     2.927E-22
  53684.536     2.923E-22
  53684.604     2.920E-22
  53684.674     2.922E-22
  53684.743     2.922E-22
  53684.811     2.916E-22
  53684.880     2.911E-22
  53684.949     2.906E-22
  53685.018     2.902E-22
  53685.086     2.905E-22
  53685.155     2.910E-22
  53685.224     2.920E-22
  53685.293     2.934E-22
  53685.361     2.950E-22
  53685.430     2.967E-22
  53685.499     2.982E-22
  53685.568     2.994E-22
  53685.636     3.005E-22
  53685.705     3.009E-22
  53685.774     3.011E-22
  53685.843     3.008E-22
  53685.911     3.002E-22
  53685.980     3.001E-22
  53686.049     3.008E-22
  53686.118     3.020E-22
  53686.187     3.026E-22
  53686.255     3.020E-22
  53686.324     3.010E-22
  53686.394     3.007E-22
  53686.462     3.008E-22
  53686.531     3.010E-22
  53686.600     3.010E-22
  53686.669     3.007E-22
  53686.737     3.002E-22
  53686.806     3.001E-22
  53686.875     3.006E-22
  53686.944     3.015E-22
  53687.012     3.028E-22
  53687.081     3.045E-22
  53687.150     3.060E-22
  53687.219     3.078E-22
  53687.288     3.097E-22
  53687.356     3.120E-22
  53687.425     3.137E-22
  53687.494     3.146E-22
  53687.563     3.161E-22
  53687.631     3.171E-22
  53687.700     3.181E-22
  53687.769     3.182E-22
  53687.838     3.161E-22
  53687.906     3.148E-22
  53687.975     3.139E-22
  53688.044     3.130E-22
  53688.113     3.139E-22
  53688.182     3.176E-22
  53688.251     3.223E-22
  53688.320     3.271E-22
  53688.389     3.302E-22
  53688.458     3.326E-22
  53688.527     3.341E-22
  53688.596     3.337E-22
  53688.665     3.343E-22
  53688.734     3.364E-22
  53688.803     3.391E-22
  53688.872     3.417E-22
  53688.942     3.445E-22
  53689.011     3.464E-22
  53689.080     3.482E-22
  53689.149     3.500E-22
  53689.218     3.519E-22
  53689.287     3.532E-22
  53689.356     3.542E-22
  53689.425     3.550E-22
  53689.494     3.562E-22
  53689.563     3.582E-22
  53689.632     3.612E-22
  53689.701     3.649E-22
  53689.770     3.686E-22
  53689.839     3.720E-22
  53689.908     3.767E-22
  53689.977     3.820E-22
  53690.046     3.872E-22
  53690.115     3.916E-22
  53690.184     3.937E-22
  53690.253     3.952E-22
  53690.322     3.974E-22
  53690.391     4.011E-22
  53690.460     4.047E-22
  53690.529     4.088E-22
  53690.598     4.134E-22
  53690.667     4.181E-22
  53690.736     4.236E-22
  53690.805     4.302E-22
  53690.874     4.370E-22
  53690.943     4.455E-22
  53691.012     4.549E-22
  53691.081     4.628E-22
  53691.149     4.700E-22
  53691.218     4.789E-22
  53691.286     4.869E-22
  53691.354     4.990E-22
  53691.423     5.132E-22
  53691.491     5.187E-22
  53691.559     5.278E-22
  53691.627     5.439E-22
  53691.696     5.398E-22
  53691.765     5.374E-22
  53691.833     5.607E-22
  53691.901     5.764E-22
  53691.970     5.919E-22
  53692.038     5.922E-22
  53692.108     6.061E-22
  53692.177     6.348E-22
  53692.246     6.473E-22
  53692.315     6.690E-22
  53692.384     7.150E-22
  53692.454     7.307E-22
  53692.523     7.317E-22
  53692.592     7.281E-22
  53692.661     7.329E-22
  53692.730     7.412E-22
  53692.800     7.629E-22
  53692.869     7.865E-22
  53692.938     8.013E-22
  53693.007     8.465E-22
  53693.076     8.617E-22
  53693.146     8.876E-22
  53693.215     8.985E-22
  53693.284     9.103E-22
  53693.353     9.607E-22
  53693.422     1.015E-21
  53693.492     1.056E-21
  53693.561     1.084E-21
  53693.630     1.157E-21
  53693.699     1.207E-21
  53693.768     1.271E-21
  53693.837     1.334E-21
  53693.907     1.397E-21
  53693.976     1.466E-21
  53694.045     1.537E-21
  53694.114     1.607E-21
  53694.183     1.678E-21
  53694.253     1.773E-21
  53694.391     2.087E-21
  53694.463     2.328E-21
  53694.592     2.741E-21
  53694.663     2.954E-21
  53694.737     3.248E-21
  53694.815     3.643E-21
  53694.896     4.045E-21
  53694.996     4.397E-21
  53695.076     4.641E-21
  53695.160     4.844E-21
  53695.245     4.966E-21
  53695.329     5.115E-21
  53695.414     5.232E-21
  53695.479     5.284E-21
  53695.583     5.288E-21
  53695.648     5.275E-21
  53695.733     5.228E-21
  53695.837     5.105E-21
  53695.922     4.916E-21
  53696.006     4.739E-21
  53696.091     4.665E-21
  53696.175     4.716E-21
  53696.260     4.778E-21
  53696.325     4.689E-21
  53696.429     4.417E-21
  53696.514     4.096E-21
  53696.599     3.840E-21
  53696.681     3.715E-21
  53696.761     3.640E-21
  53696.864     3.505E-21
  53696.944     3.376E-21
  53697.021     3.194E-21
  53697.095     2.986E-21
  53697.165     2.826E-21
  53697.295     2.644E-21
  53697.367     2.511E-21
  53697.436     2.368E-21
  53697.505     2.291E-21
  53697.574     2.207E-21
  53697.643     2.134E-21
  53697.713     2.065E-21
  53697.782     1.994E-21
  53697.851     1.920E-21
  53697.920     1.846E-21
  53697.989     1.780E-21
  53698.059     1.687E-21
  53698.128     1.639E-21
  53698.197     1.594E-21
  53698.266     1.553E-21
  53698.335     1.502E-21
  53698.404     1.466E-21
  53698.474     1.385E-21
  53698.543     1.332E-21
  53698.612     1.313E-21
  53698.681     1.292E-21
  53698.750     1.255E-21
  53698.820     1.225E-21
  53698.889     1.204E-21
  53698.958     1.198E-21
  53699.027     1.176E-21
  53699.096     1.144E-21
  53699.166     1.109E-21
  53699.235     1.090E-21
  53699.304     1.097E-21
  53699.373     1.063E-21
  53699.442     1.069E-21
  53699.512     1.057E-21
  53699.581     1.049E-21
  53699.650     1.045E-21
  53699.719     1.035E-21
  53699.788     9.961E-22
  53699.858     1.025E-21
  53699.927     1.025E-21
  53699.996     9.989E-22
  53700.065     1.014E-21
  53700.134     1.004E-21
  53700.204     9.903E-22
  53700.273     9.801E-22
  53700.342     9.718E-22
  53700.411     9.663E-22
  53700.480     9.827E-22
  53700.550     9.910E-22
  53700.619     1.001E-21
  53700.688     1.016E-21
  53700.757     1.021E-21
  53700.826     1.052E-21
  53700.895     1.082E-21
  53700.965     1.084E-21
  53701.034     1.102E-21
  53701.103     1.130E-21
  53701.172     1.147E-21
  53701.241     1.179E-21
  53701.311     1.219E-21
  53701.380     1.249E-21
  53701.449     1.275E-21
  53701.518     1.309E-21
  53701.587     1.373E-21
  53701.657     1.435E-21
  53701.726     1.480E-21
  53701.795     1.536E-21
  53701.864     1.603E-21
  53701.933     1.674E-21
  53702.003     1.742E-21
  53702.072     1.842E-21
  53702.141     1.947E-21
  53702.210     2.045E-21
  53702.279     2.144E-21
  53702.349     2.223E-21
  53702.418     2.299E-21
  53702.487     2.346E-21
  53702.556     2.408E-21
  53702.625     2.508E-21
  53702.695     2.602E-21
  53702.764     2.652E-21
  53702.833     2.702E-21
  53702.902     2.732E-21
  53702.971     2.783E-21
  53703.040     2.829E-21
  53703.110     2.924E-21
  53703.182     3.111E-21
  53703.256     3.271E-21
  53703.379     3.563E-21
  53703.453     3.778E-21
  53703.529     3.995E-21
  53703.608     4.262E-21
  53703.712     4.698E-21
  53703.776     5.199E-21
  53703.871     5.699E-21
  53703.936     6.124E-21
  53704.021     6.492E-21
  53704.105     6.738E-21
  53704.190     7.040E-21
  53704.294     7.394E-21
  53704.359     7.732E-21
  53704.443     8.037E-21
  53704.528     8.346E-21
  53704.612     8.696E-21
  53704.697     9.094E-21
  53704.781     9.508E-21
  53704.866     9.869E-21
  53704.951     1.010E-20
  53705.035     1.019E-20
  53705.120     1.019E-20
  53705.204     1.009E-20
  53705.289     9.869E-21
  53705.373     9.565E-21
  53705.458     9.234E-21
  53705.542     8.869E-21
  53705.627     8.439E-21
  53705.711     7.960E-21
  53705.815     7.501E-21
  53705.880     7.127E-21
  53705.965     6.844E-21
  53706.049     6.637E-21
  53706.134     6.488E-21
  53706.218     6.331E-21
  53706.322     6.111E-21
  53706.407     5.871E-21
  53706.472     5.601E-21
  53706.576     5.225E-21
  53706.658     4.747E-21
  53706.738     4.357E-21
  53706.834     4.002E-21
  53706.914     3.682E-21
  53706.992     3.398E-21
  53707.067     3.178E-21
  53707.183     2.950E-21
  53707.259     2.788E-21
  53707.331     2.626E-21
  53707.402     2.483E-21
  53707.538     2.214E-21
  53707.607     2.142E-21
  53707.676     2.044E-21
  53707.745     1.954E-21
  53707.815     1.875E-21
  53707.884     1.806E-21
  53707.953     1.707E-21
  53708.022     1.639E-21
  53708.091     1.575E-21
  53708.161     1.526E-21
  53708.230     1.447E-21
  53708.299     1.365E-21
  53708.368     1.326E-21
  53708.437     1.258E-21
  53708.507     1.222E-21
  53708.576     1.180E-21
  53708.645     1.157E-21
  53708.714     1.116E-21
  53708.783     1.060E-21
  53708.852     1.039E-21
  53708.922     1.036E-21
  53708.991     1.031E-21
  53709.060     9.937E-22
  53709.129     9.511E-22
  53709.198     9.130E-22
  53709.268     8.946E-22
  53709.337     8.547E-22
  53709.406     8.328E-22
  53709.475     8.309E-22
  53709.544     7.978E-22
  53709.614     7.719E-22
  53709.683     7.516E-22
  53709.752     7.161E-22
  53709.821     6.853E-22
  53709.890     6.856E-22
  53709.959     6.888E-22
  53710.029     6.818E-22
  53710.098     6.730E-22
  53710.167     6.745E-22
  53710.236     6.622E-22
  53710.304     6.382E-22
  53710.372     6.226E-22
  53710.440     6.091E-22
  53710.508     5.987E-22
  53710.576     5.879E-22
  53710.643     5.738E-22
  53710.712     5.648E-22
  53710.779     5.597E-22
  53710.847     5.494E-22
  53710.914     5.420E-22
  53710.982     5.344E-22
  53711.051     5.250E-22
  53711.118     5.138E-22
  53711.255     4.977E-22
  53711.324     4.923E-22
  53711.393     4.860E-22
  53711.462     4.791E-22
  53711.531     4.711E-22
  53711.600     4.638E-22
  53711.669     4.574E-22
  53711.738     4.530E-22
  53711.808     4.484E-22
  53711.877     4.429E-22
  53711.946     4.365E-22
  53712.015     4.288E-22
  53712.084     4.228E-22
  53712.153     4.190E-22
  53712.222     4.163E-22
  53712.291     4.146E-22
  53712.360     4.113E-22
  53712.429     4.082E-22
  53712.498     4.064E-22
  53712.568     4.043E-22
  53712.637     4.024E-22
  53712.706     4.017E-22
  53712.775     4.017E-22
  53712.844     4.006E-22
  53712.913     3.985E-22
  53712.982     3.950E-22
  53713.051     3.903E-22
  53713.120     3.863E-22
  53713.189     3.841E-22
  53713.258     3.840E-22
  53713.328     3.854E-22
  53713.397     3.871E-22
  53713.466     3.873E-22
  53713.535     3.870E-22
  53713.604     3.866E-22
  53713.673     3.866E-22
  53713.742     3.873E-22
  53713.811     3.872E-22
  53713.880     3.871E-22
  53713.949     3.878E-22
  53714.019     3.891E-22
  53714.088     3.923E-22
  53714.157     3.958E-22
  53714.226     3.989E-22
  53714.295     4.002E-22
  53714.364     3.998E-22
  53714.433     4.014E-22
  53714.504     4.076E-22
  53714.574     4.134E-22
  53714.645     4.199E-22
  53714.717     4.297E-22
  53714.788     4.393E-22
  53714.858     4.551E-22
  53714.929     4.767E-22
  53715.000     4.943E-22
  53715.070     5.188E-22
  53715.141     5.323E-22
  53715.213     5.314E-22
  53715.283     5.635E-22
  53715.354     5.985E-22
  53715.425     6.279E-22
  53715.494     6.619E-22
  53715.564     6.974E-22
  53715.633     7.487E-22
  53715.702     8.224E-22
  53715.771     8.839E-22
  53715.840     9.556E-22
  53715.910     1.042E-21
  53715.979     1.121E-21
  53716.048     1.220E-21
  53716.117     1.341E-21
  53716.186     1.438E-21
  53716.255     1.501E-21
  53716.325     1.548E-21
  53716.394     1.598E-21
  53716.463     1.629E-21
  53716.532     1.670E-21
  53716.601     1.672E-21
  53716.671     1.699E-21
  53716.740     1.709E-21
  53716.809     1.691E-21
  53716.878     1.692E-21
  53716.947     1.698E-21
  53717.016     1.690E-21
  53717.086     1.725E-21
  53717.155     1.703E-21
  53717.224     1.674E-21
  53717.293     1.644E-21
  53717.362     1.630E-21
  53717.432     1.611E-21
  53717.501     1.548E-21
  53717.570     1.483E-21
  53717.639     1.410E-21
  53717.708     1.334E-21
  53717.777     1.259E-21
  53717.847     1.191E-21
  53717.916     1.121E-21
  53717.985     1.043E-21
  53718.054     9.713E-22
  53718.123     9.191E-22
  53718.193     8.554E-22
  53718.262     8.073E-22
  53718.331     7.731E-22
  53718.400     7.220E-22
  53718.469     6.472E-22
  53718.538     5.988E-22
  53718.608     5.499E-22
  53718.677     5.257E-22
  53718.746     4.873E-22
  53718.813     4.643E-22
  53718.880     4.588E-22
  53718.948     4.410E-22
  53719.015     4.304E-22
  53719.082     4.165E-22
  53719.149     3.964E-22
  53719.216     3.845E-22
  53719.283     3.680E-22
  53719.350     3.560E-22
  53719.417     3.449E-22
  53719.484     3.359E-22
  53719.551     3.257E-22
  53719.618     3.160E-22
  53719.754     2.990E-22
  53719.823     2.922E-22
  53719.892     2.856E-22
  53719.961     2.791E-22
  53720.031     2.740E-22
  53720.100     2.694E-22
  53720.169     2.639E-22
  53720.238     2.574E-22
  53720.307     2.512E-22
  53720.376     2.465E-22
  53720.445     2.426E-22
  53720.514     2.390E-22
  53720.584     2.361E-22
  53720.653     2.341E-22
  53720.722     2.319E-22
  53720.791     2.290E-22
  53720.860     2.253E-22
  53720.929     2.214E-22
  53720.998     2.178E-22
  53721.067     2.144E-22
  53721.136     2.116E-22
  53721.206     2.088E-22
  53721.275     2.065E-22
  53721.344     2.053E-22
  53721.413     2.044E-22
  53721.482     2.037E-22
  53721.551     2.024E-22
  53721.620     2.003E-22
  53721.689     1.987E-22
  53721.758     1.969E-22
  53721.828     1.947E-22
  53721.897     1.926E-22
  53721.966     1.909E-22
  53722.035     1.893E-22
  53722.104     1.883E-22
  53722.173     1.877E-22
  53722.242     1.871E-22
  53722.311     1.865E-22
  53722.381     1.862E-22
  53722.450     1.863E-22
  53722.519     1.860E-22
  53722.588     1.854E-22
  53722.657     1.847E-22
  53722.726     1.841E-22
  53722.795     1.836E-22
  53722.864     1.832E-22
  53722.933     1.827E-22
  53723.003     1.827E-22
  53723.072     1.828E-22
  53723.141     1.834E-22
  53723.210     1.851E-22
  53723.279     1.875E-22
  53723.348     1.909E-22
  53723.417     1.950E-22
  53723.486     1.993E-22
  53723.556     2.038E-22
  53723.625     2.091E-22
  53723.694     2.156E-22
  53723.763     2.235E-22
  53723.832     2.328E-22
  53723.901     2.418E-22
  53723.970     2.513E-22
  53724.039     2.618E-22
  53724.109     2.727E-22
  53724.178     2.837E-22
  53724.247     2.930E-22
  53724.316     3.008E-22
  53724.385     3.068E-22
  53724.454     3.092E-22
  53724.523     3.074E-22
  53724.592     3.025E-22
  53724.661     2.968E-22
  53724.731     2.899E-22
  53724.800     2.821E-22
  53724.869     2.738E-22
  53724.938     2.662E-22
  53725.007     2.596E-22
  53725.076     2.541E-22
  53725.145     2.489E-22
  53725.214     2.444E-22
  53725.284     2.416E-22
  53725.353     2.410E-22
  53725.422     2.417E-22
  53725.491     2.439E-22
  53725.560     2.472E-22
  53725.629     2.506E-22
  53725.698     2.544E-22
  53725.768     2.587E-22
  53725.837     2.641E-22
  53725.906     2.704E-22
  53725.975     2.770E-22
  53726.044     2.824E-22
  53726.113     2.854E-22
  53726.182     2.870E-22
  53726.251     2.884E-22
  53726.321     2.896E-22
  53726.390     2.897E-22
  53726.459     2.892E-22
  53726.528     2.898E-22
  53726.597     2.902E-22
  53726.666     2.895E-22
  53726.735     2.886E-22
  53726.804     2.871E-22
  53726.874     2.848E-22
  53726.943     2.821E-22
  53727.012     2.795E-22
  53727.081     2.780E-22
  53727.150     2.771E-22
  53727.219     2.756E-22
  53727.288     2.739E-22
  53727.357     2.708E-22
  53727.427     2.667E-22
  53727.496     2.617E-22
  53727.565     2.560E-22
  53727.634     2.492E-22
  53727.703     2.422E-22
  53727.772     2.352E-22
  53727.841     2.287E-22
  53727.911     2.220E-22
  53727.980     2.155E-22
  53728.049     2.094E-22
  53728.118     2.041E-22
  53728.187     1.991E-22
  53728.256     1.941E-22
  53728.325     1.898E-22
  53728.394     1.862E-22
  53728.464     1.828E-22
  53728.533     1.800E-22
  53728.602     1.775E-22
  53728.671     1.751E-22
  53728.740     1.728E-22
  53728.809     1.708E-22
  53728.878     1.687E-22
  53728.948     1.662E-22
  53729.017     1.641E-22
  53729.086     1.624E-22
  53729.155     1.608E-22
  53729.224     1.596E-22
  53729.293     1.582E-22
  53729.362     1.564E-22
  53729.431     1.550E-22
  53729.501     1.537E-22
  53729.570     1.517E-22
  53729.639     1.495E-22
  53729.708     1.480E-22
  53729.777     1.472E-22
  53729.846     1.468E-22
  53729.915     1.463E-22
  53729.985     1.460E-22
  53730.054     1.456E-22
  53730.123     1.448E-22
  53730.192     1.435E-22
  53730.261     1.421E-22
  53730.330     1.406E-22
  53730.399     1.395E-22
  53730.469     1.390E-22
  53730.538     1.379E-22
  53730.607     1.368E-22
  53730.676     1.357E-22
  53730.745     1.344E-22
  53730.814     1.327E-22
  53730.883     1.315E-22
  53730.952     1.310E-22
  53731.022     1.305E-22
  53731.091     1.302E-22
  53731.160     1.297E-22
  53731.229     1.287E-22
  53731.298     1.281E-22
  53731.367     1.277E-22
  53731.436     1.275E-22
  53731.506     1.271E-22
  53731.575     1.261E-22
  53731.644     1.256E-22
  53731.713     1.252E-22
  53731.782     1.250E-22
  53731.851     1.250E-22
  53731.920     1.247E-22
  53731.990     1.239E-22
  53732.059     1.226E-22
  53732.128     1.215E-22
  53732.197     1.204E-22
  53732.266     1.194E-22
  53732.335     1.194E-22
  53732.404     1.198E-22
  53732.474     1.202E-22
  53732.543     1.205E-22
  53732.612     1.204E-22
  53732.681     1.202E-22
  53732.750     1.199E-22
  53732.819     1.198E-22
  53732.888     1.197E-22
  53732.958     1.197E-22
  53733.027     1.200E-22
  53733.096     1.202E-22
  53733.165     1.208E-22
  53733.234     1.214E-22
  53733.303     1.224E-22
  53733.372     1.232E-22
  53733.442     1.235E-22
  53733.511     1.234E-22
  53733.580     1.231E-22
  53733.649     1.227E-22
  53733.718     1.223E-22
  53733.787     1.218E-22
  53733.857     1.215E-22
  53733.926     1.213E-22
  53733.995     1.215E-22
  53734.064     1.220E-22
  53734.133     1.224E-22
  53734.202     1.227E-22
  53734.271     1.228E-22
  53734.341     1.232E-22
  53734.410     1.241E-22
  53734.479     1.251E-22
  53734.548     1.262E-22
  53734.617     1.271E-22
  53734.686     1.278E-22
  53734.755     1.286E-22
  53734.825     1.292E-22
  53734.894     1.300E-22
  53734.963     1.309E-22
  53735.032     1.322E-22
  53735.101     1.336E-22
  53735.170     1.352E-22
  53735.239     1.368E-22
  53735.309     1.386E-22
  53735.378     1.408E-22
  53735.447     1.430E-22
  53735.516     1.450E-22
  53735.585     1.468E-22
  53735.654     1.478E-22
  53735.724     1.479E-22
  53735.793     1.484E-22
  53735.862     1.496E-22
  53735.931     1.507E-22
  53736.000     1.509E-22
  53736.069     1.503E-22
  53736.138     1.492E-22
  53736.208     1.476E-22
  53736.277     1.464E-22
  53736.346     1.458E-22
  53736.415     1.451E-22
  53736.484     1.442E-22
  53736.553     1.431E-22
  53736.623     1.421E-22
  53736.692     1.413E-22
  53736.761     1.404E-22
  53736.830     1.391E-22
  53736.899     1.379E-22
  53736.968     1.364E-22
  53737.037     1.350E-22
  53737.107     1.338E-22
  53737.176     1.329E-22
  53737.245     1.325E-22
  53737.314     1.321E-22
  53737.383     1.321E-22
  53737.452     1.324E-22
  53737.522     1.325E-22
  53737.591     1.325E-22
  53737.660     1.324E-22
  53737.729     1.319E-22
  53737.798     1.312E-22
  53737.867     1.310E-22
  53737.937     1.309E-22
  53738.006     1.309E-22
  53738.075     1.310E-22
  53738.144     1.309E-22
  53738.213     1.307E-22
  53738.282     1.308E-22
  53738.351     1.307E-22
  53738.421     1.303E-22
  53738.490     1.299E-22
  53738.559     1.293E-22
  53738.628     1.286E-22
  53738.697     1.285E-22
  53738.766     1.286E-22
  53738.836     1.284E-22
  53738.905     1.282E-22
  53738.974     1.278E-22
  53739.043     1.272E-22
  53739.112     1.266E-22
  53739.181     1.260E-22
  53739.251     1.255E-22
  53739.320     1.251E-22
  53739.389     1.249E-22
  53739.458     1.246E-22
  53739.527     1.247E-22
  53739.596     1.245E-22
  53739.666     1.242E-22
  53739.735     1.243E-22
  53739.804     1.246E-22
  53739.873     1.254E-22
  53739.942     1.262E-22
  53740.011     1.266E-22
  53740.080     1.264E-22
  53740.150     1.257E-22
  53740.219     1.252E-22
  53740.288     1.251E-22
  53740.357     1.250E-22
  53740.426     1.253E-22
  53740.495     1.256E-22
  53740.565     1.259E-22
  53740.634     1.261E-22
  53740.703     1.258E-22
  53740.772     1.255E-22
  53740.841     1.250E-22
  53740.910     1.245E-22
  53740.980     1.241E-22
  53741.049     1.234E-22
  53741.118     1.227E-22
  53741.187     1.224E-22
  53741.256     1.224E-22
  53741.325     1.229E-22
  53741.395     1.238E-22
  53741.464     1.244E-22
  53741.533     1.249E-22
  53741.602     1.251E-22
  53741.671     1.251E-22
  53741.740     1.249E-22
  53741.810     1.252E-22
  53741.879     1.254E-22
  53741.948     1.253E-22
  53742.017     1.255E-22
  53742.086     1.262E-22
  53742.156     1.270E-22
  53742.226     1.274E-22
  53742.295     1.278E-22
  53742.365     1.280E-22
  53742.434     1.284E-22
  53742.503     1.291E-22
  53742.573     1.297E-22
  53742.643     1.305E-22
  53742.712     1.314E-22
  53742.782     1.319E-22
  53742.851     1.321E-22
  53742.920     1.322E-22
  53742.990     1.318E-22
  53743.060     1.313E-22
  53743.129     1.314E-22
  53743.199     1.318E-22
  53743.268     1.328E-22
  53743.338     1.342E-22
  53743.408     1.355E-22
  53743.477     1.369E-22
  53743.546     1.383E-22
  53743.616     1.398E-22
  53743.685     1.412E-22
  53743.755     1.425E-22
  53743.825     1.439E-22
  53743.894     1.455E-22
  53743.963     1.473E-22
  53744.033     1.487E-22
  53744.102     1.500E-22
  53744.172     1.514E-22
  53744.241     1.531E-22
  53744.311     1.551E-22
  53744.380     1.572E-22
  53744.449     1.592E-22
  53744.519     1.607E-22
  53744.589     1.619E-22
  53744.658     1.634E-22
  53744.728     1.650E-22
  53744.797     1.674E-22
  53744.866     1.703E-22
  53744.936     1.732E-22
  53745.006     1.758E-22
  53745.075     1.786E-22
  53745.145     1.812E-22
  53745.214     1.842E-22
  53745.283     1.879E-22
  53745.354     1.920E-22
  53745.423     1.957E-22
  53745.492     1.993E-22
  53745.562     2.028E-22
  53745.631     2.056E-22
  53745.700     2.087E-22
  53745.771     2.132E-22
  53745.840     2.191E-22
  53745.909     2.257E-22
  53745.979     2.324E-22
