#  O2 xsec;CfA;O2WB8X0;300 K;53746-54260 cm-1;7006 pts         
#    WNO      SIGMA
  53746.048     2.390E-22
  53746.118     2.453E-22
  53746.187     2.514E-22
  53746.256     2.579E-22
  53746.325     2.647E-22
  53746.394     2.719E-22
  53746.463     2.798E-22
  53746.533     2.871E-22
  53746.600     2.955E-22
  53746.667     3.050E-22
  53746.734     3.132E-22
  53746.801     3.271E-22
  53746.868     3.439E-22
  53746.936     3.623E-22
  53747.003     3.756E-22
  53747.071     4.040E-22
  53747.138     4.396E-22
  53747.205     4.701E-22
  53747.272     5.017E-22
  53747.340     5.262E-22
  53747.407     5.537E-22
  53747.543     6.978E-22
  53747.612     7.668E-22
  53747.681     8.364E-22
  53747.751     9.144E-22
  53747.820     1.006E-21
  53747.889     1.135E-21
  53747.958     1.236E-21
  53748.027     1.312E-21
  53748.096     1.357E-21
  53748.166     1.418E-21
  53748.235     1.466E-21
  53748.304     1.488E-21
  53748.373     1.490E-21
  53748.442     1.501E-21
  53748.511     1.505E-21
  53748.581     1.521E-21
  53748.650     1.523E-21
  53748.719     1.524E-21
  53748.788     1.514E-21
  53748.857     1.521E-21
  53748.926     1.534E-21
  53748.996     1.526E-21
  53749.065     1.542E-21
  53749.134     1.553E-21
  53749.203     1.570E-21
  53749.272     1.527E-21
  53749.341     1.486E-21
  53749.411     1.437E-21
  53749.480     1.415E-21
  53749.549     1.372E-21
  53749.618     1.300E-21
  53749.687     1.245E-21
  53749.756     1.192E-21
  53749.825     1.129E-21
  53749.895     1.086E-21
  53749.964     1.019E-21
  53750.033     9.590E-22
  53750.102     9.091E-22
  53750.171     8.445E-22
  53750.240     7.706E-22
  53750.310     6.992E-22
  53750.379     6.375E-22
  53750.448     5.863E-22
  53750.517     5.503E-22
  53750.586     5.464E-22
  53750.655     5.262E-22
  53750.725     5.020E-22
  53750.796     4.865E-22
  53750.867     4.592E-22
  53750.938     4.347E-22
  53751.009     4.210E-22
  53751.080     4.036E-22
  53751.152     3.887E-22
  53751.223     3.728E-22
  53751.294     3.616E-22
  53751.366     3.501E-22
  53751.437     3.364E-22
  53751.508     3.253E-22
  53751.579     3.154E-22
  53751.650     3.036E-22
  53751.722     2.953E-22
  53751.791     2.883E-22
  53751.860     2.827E-22
  53751.929     2.775E-22
  53751.998     2.725E-22
  53752.068     2.674E-22
  53752.137     2.622E-22
  53752.206     2.574E-22
  53752.275     2.534E-22
  53752.344     2.498E-22
  53752.413     2.463E-22
  53752.483     2.431E-22
  53752.552     2.399E-22
  53752.621     2.365E-22
  53752.690     2.336E-22
  53752.759     2.314E-22
  53752.829     2.298E-22
  53752.898     2.295E-22
  53752.967     2.299E-22
  53753.036     2.306E-22
  53753.105     2.308E-22
  53753.175     2.298E-22
  53753.244     2.281E-22
  53753.313     2.268E-22
  53753.382     2.254E-22
  53753.451     2.243E-22
  53753.521     2.233E-22
  53753.590     2.219E-22
  53753.659     2.206E-22
  53753.728     2.196E-22
  53753.797     2.192E-22
  53753.867     2.188E-22
  53753.936     2.186E-22
  53754.005     2.181E-22
  53754.074     2.174E-22
  53754.143     2.179E-22
  53754.213     2.189E-22
  53754.282     2.198E-22
  53754.351     2.204E-22
  53754.420     2.208E-22
  53754.489     2.210E-22
  53754.559     2.209E-22
  53754.628     2.213E-22
  53754.697     2.222E-22
  53754.766     2.224E-22
  53754.835     2.226E-22
  53754.905     2.235E-22
  53754.974     2.254E-22
  53755.043     2.275E-22
  53755.112     2.283E-22
  53755.181     2.282E-22
  53755.251     2.279E-22
  53755.320     2.288E-22
  53755.389     2.307E-22
  53755.458     2.329E-22
  53755.527     2.351E-22
  53755.597     2.369E-22
  53755.666     2.390E-22
  53755.735     2.412E-22
  53755.804     2.439E-22
  53755.873     2.467E-22
  53755.943     2.491E-22
  53756.012     2.510E-22
  53756.081     2.535E-22
  53756.150     2.559E-22
  53756.219     2.580E-22
  53756.289     2.592E-22
  53756.358     2.595E-22
  53756.427     2.600E-22
  53756.496     2.617E-22
  53756.565     2.646E-22
  53756.635     2.678E-22
  53756.704     2.710E-22
  53756.773     2.752E-22
  53756.842     2.794E-22
  53756.912     2.826E-22
  53756.981     2.852E-22
  53757.050     2.869E-22
  53757.119     2.884E-22
  53757.188     2.912E-22
  53757.258     2.953E-22
  53757.327     3.009E-22
  53757.396     3.072E-22
  53757.465     3.136E-22
  53757.532     3.204E-22
  53757.601     3.278E-22
  53757.668     3.335E-22
  53757.736     3.397E-22
  53757.803     3.459E-22
  53757.871     3.549E-22
  53757.939     3.625E-22
  53758.006     3.787E-22
  53758.074     3.961E-22
  53758.142     4.073E-22
  53758.209     4.205E-22
  53758.277     4.349E-22
  53758.345     4.492E-22
  53758.412     4.583E-22
  53758.480     4.804E-22
  53758.548     5.136E-22
  53758.615     5.301E-22
  53758.683     5.563E-22
  53758.750     5.862E-22
  53758.818     6.069E-22
  53758.955     7.110E-22
  53759.024     7.448E-22
  53759.093     8.083E-22
  53759.162     8.638E-22
  53759.231     9.186E-22
  53759.300     9.701E-22
  53759.370     1.056E-21
  53759.439     1.152E-21
  53759.508     1.258E-21
  53759.577     1.342E-21
  53759.646     1.435E-21
  53759.715     1.551E-21
  53759.785     1.663E-21
  53759.854     1.767E-21
  53759.923     1.857E-21
  53759.992     1.959E-21
  53760.061     2.047E-21
  53760.130     2.112E-21
  53760.199     2.151E-21
  53760.269     2.210E-21
  53760.338     2.250E-21
  53760.407     2.274E-21
  53760.476     2.285E-21
  53760.545     2.292E-21
  53760.614     2.289E-21
  53760.684     2.302E-21
  53760.753     2.304E-21
  53760.822     2.278E-21
  53760.891     2.217E-21
  53760.960     2.184E-21
  53761.029     2.153E-21
  53761.098     2.091E-21
  53761.168     1.982E-21
  53761.237     1.894E-21
  53761.306     1.786E-21
  53761.375     1.702E-21
  53761.444     1.595E-21
  53761.513     1.489E-21
  53761.583     1.396E-21
  53761.652     1.318E-21
  53761.721     1.252E-21
  53761.790     1.187E-21
  53761.859     1.138E-21
  53761.928     1.102E-21
  53761.998     1.060E-21
  53762.067     1.009E-21
  53762.136     9.685E-22
  53762.205     9.518E-22
  53762.274     9.447E-22
  53762.343     9.232E-22
  53762.412     8.776E-22
  53762.482     8.371E-22
  53762.551     8.306E-22
  53762.620     8.201E-22
  53762.689     7.901E-22
  53762.758     7.785E-22
  53762.827     7.564E-22
  53762.897     7.359E-22
  53762.966     7.292E-22
  53763.035     7.418E-22
  53763.104     7.407E-22
  53763.173     7.367E-22
  53763.242     7.344E-22
  53763.311     7.285E-22
  53763.381     7.150E-22
  53763.450     7.239E-22
  53763.519     7.499E-22
  53763.588     7.640E-22
  53763.657     7.811E-22
  53763.726     7.720E-22
  53763.796     7.697E-22
  53763.865     7.740E-22
  53763.934     7.844E-22
  53764.003     8.043E-22
  53764.072     8.425E-22
  53764.141     8.696E-22
  53764.210     8.867E-22
  53764.280     8.917E-22
  53764.349     8.981E-22
  53764.418     8.862E-22
  53764.487     9.063E-22
  53764.556     9.463E-22
  53764.625     9.687E-22
  53764.695     1.006E-21
  53764.764     1.024E-21
  53764.833     1.042E-21
  53764.902     1.088E-21
  53764.971     1.131E-21
  53765.040     1.173E-21
  53765.109     1.229E-21
  53765.179     1.303E-21
  53765.248     1.332E-21
  53765.317     1.338E-21
  53765.386     1.368E-21
  53765.455     1.408E-21
  53765.524     1.460E-21
  53765.594     1.517E-21
  53765.663     1.553E-21
  53765.732     1.601E-21
  53765.801     1.642E-21
  53765.870     1.705E-21
  53765.939     1.805E-21
  53766.008     1.893E-21
  53766.078     1.996E-21
  53766.147     2.070E-21
  53766.216     2.164E-21
  53766.285     2.263E-21
  53766.354     2.352E-21
  53766.425     2.458E-21
  53766.559     2.788E-21
  53766.630     2.959E-21
  53766.703     3.154E-21
  53766.777     3.381E-21
  53766.895     3.787E-21
  53766.970     4.133E-21
  53767.046     4.535E-21
  53767.124     4.980E-21
  53767.204     5.372E-21
  53767.304     5.889E-21
  53767.369     6.294E-21
  53767.449     6.732E-21
  53767.530     7.162E-21
  53767.614     7.568E-21
  53767.698     7.977E-21
  53767.782     8.416E-21
  53767.866     8.725E-21
  53767.950     8.794E-21
  53768.034     8.751E-21
  53768.118     8.767E-21
  53768.202     8.831E-21
  53768.286     8.835E-21
  53768.370     8.714E-21
  53768.454     8.465E-21
  53768.538     8.139E-21
  53768.621     7.863E-21
  53768.705     7.739E-21
  53768.789     7.711E-21
  53768.873     7.593E-21
  53768.959     7.193E-21
  53769.042     6.706E-21
  53769.124     6.264E-21
  53769.236     5.893E-21
  53769.317     5.559E-21
  53769.396     5.215E-21
  53769.473     4.909E-21
  53769.548     4.672E-21
  53769.663     4.290E-21
  53769.739     4.116E-21
  53769.813     3.917E-21
  53769.885     3.711E-21
  53769.954     3.518E-21
  53770.087     3.255E-21
  53770.158     3.128E-21
  53770.227     2.984E-21
  53770.296     2.816E-21
  53770.365     2.728E-21
  53770.434     2.603E-21
  53770.503     2.494E-21
  53770.572     2.439E-21
  53770.642     2.424E-21
  53770.711     2.340E-21
  53770.780     2.263E-21
  53770.849     2.194E-21
  53770.918     2.124E-21
  53770.987     2.057E-21
  53771.056     2.033E-21
  53771.126     2.003E-21
  53771.195     1.961E-21
  53771.264     1.925E-21
  53771.333     1.884E-21
  53771.402     1.843E-21
  53771.471     1.814E-21
  53771.541     1.783E-21
  53771.610     1.771E-21
  53771.679     1.766E-21
  53771.748     1.749E-21
  53771.817     1.723E-21
  53771.886     1.699E-21
  53771.955     1.680E-21
  53772.025     1.668E-21
  53772.094     1.676E-21
  53772.163     1.691E-21
  53772.232     1.699E-21
  53772.301     1.700E-21
  53772.370     1.716E-21
  53772.439     1.719E-21
  53772.509     1.738E-21
  53772.578     1.727E-21
  53772.647     1.727E-21
  53772.716     1.752E-21
  53772.785     1.787E-21
  53772.854     1.810E-21
  53772.923     1.831E-21
  53772.993     1.847E-21
  53773.062     1.873E-21
  53773.131     1.918E-21
  53773.200     1.954E-21
  53773.269     1.988E-21
  53773.338     2.015E-21
  53773.408     2.079E-21
  53773.477     2.148E-21
  53773.546     2.202E-21
  53773.615     2.256E-21
  53773.684     2.343E-21
  53773.753     2.454E-21
  53773.822     2.547E-21
  53773.892     2.617E-21
  53773.961     2.724E-21
  53774.030     2.845E-21
  53774.099     2.936E-21
  53774.168     3.045E-21
  53774.237     3.153E-21
  53774.306     3.306E-21
  53774.376     3.449E-21
  53774.445     3.613E-21
  53774.514     3.757E-21
  53774.584     4.006E-21
  53774.656     4.350E-21
  53774.727     4.659E-21
  53774.850     5.278E-21
  53774.923     5.712E-21
  53775.006     6.212E-21
  53775.075     6.878E-21
  53775.153     7.608E-21
  53775.256     8.526E-21
  53775.335     9.383E-21
  53775.410     1.031E-20
  53775.499     1.133E-20
  53775.500     1.154E-20
  53775.577     1.242E-20
  53775.661     1.322E-20
  53775.745     1.386E-20
  53775.829     1.441E-20
  53775.913     1.507E-20
  53775.997     1.584E-20
  53776.081     1.653E-20
  53776.164     1.703E-20
  53776.248     1.729E-20
  53776.332     1.731E-20
  53776.416     1.708E-20
  53776.500     1.663E-20
  53776.584     1.609E-20
  53776.667     1.561E-20
  53776.751     1.520E-20
  53776.841     1.482E-20
  53776.919     1.437E-20
  53777.003     1.383E-20
  53777.087     1.326E-20
  53777.170     1.269E-20
  53777.254     1.213E-20
  53777.344     1.156E-20
  53777.428     1.091E-20
  53777.506     1.017E-20
  53777.596     9.354E-21
  53777.680     8.532E-21
  53777.764     7.823E-21
  53777.847     7.323E-21
  53777.931     6.966E-21
  53778.017     6.633E-21
  53778.101     6.322E-21
  53778.182     6.008E-21
  53778.261     5.633E-21
  53778.376     5.196E-21
  53778.454     4.864E-21
  53778.529     4.592E-21
  53778.603     4.337E-21
  53778.725     3.963E-21
  53778.799     3.772E-21
  53778.870     3.636E-21
  53778.939     3.548E-21
  53779.008     3.409E-21
  53779.078     3.273E-21
  53779.147     3.134E-21
  53779.216     3.008E-21
  53779.285     2.910E-21
  53779.354     2.819E-21
  53779.423     2.758E-21
  53779.492     2.696E-21
  53779.562     2.595E-21
  53779.631     2.472E-21
  53779.700     2.406E-21
  53779.769     2.332E-21
  53779.838     2.280E-21
  53779.907     2.216E-21
  53779.976     2.122E-21
  53780.046     2.047E-21
  53780.115     1.956E-21
  53780.184     1.893E-21
  53780.253     1.850E-21
  53780.322     1.811E-21
  53780.391     1.741E-21
  53780.460     1.699E-21
  53780.530     1.608E-21
  53780.599     1.564E-21
  53780.668     1.531E-21
  53780.737     1.505E-21
  53780.806     1.480E-21
  53780.875     1.452E-21
  53780.944     1.419E-21
  53781.014     1.377E-21
  53781.083     1.344E-21
  53781.152     1.311E-21
  53781.221     1.258E-21
  53781.290     1.210E-21
  53781.359     1.173E-21
  53781.428     1.148E-21
  53781.498     1.139E-21
  53781.567     1.141E-21
  53781.636     1.144E-21
  53781.705     1.127E-21
  53781.774     1.097E-21
  53781.843     1.075E-21
  53781.912     1.019E-21
  53781.982     1.000E-21
  53782.051     9.668E-22
  53782.120     9.450E-22
  53782.189     9.056E-22
  53782.258     8.734E-22
  53782.327     8.639E-22
  53782.396     8.619E-22
  53782.466     8.268E-22
  53782.535     7.864E-22
  53782.604     7.680E-22
  53782.673     7.699E-22
  53782.742     7.541E-22
  53782.811     7.774E-22
  53782.880     7.636E-22
  53782.950     7.324E-22
  53783.019     7.119E-22
  53783.087     6.885E-22
  53783.156     6.659E-22
  53783.225     6.475E-22
  53783.294     6.489E-22
  53783.363     6.435E-22
  53783.432     6.343E-22
  53783.501     6.234E-22
  53783.570     6.227E-22
  53783.639     6.172E-22
  53783.708     6.115E-22
  53783.777     6.011E-22
  53783.846     5.876E-22
  53783.915     5.771E-22
  53783.985     5.674E-22
  53784.054     5.590E-22
  53784.123     5.527E-22
  53784.192     5.479E-22
  53784.262     5.437E-22
  53784.331     5.409E-22
  53784.400     5.422E-22
  53784.470     5.457E-22
  53784.539     5.460E-22
  53784.608     5.441E-22
  53784.677     5.410E-22
  53784.747     5.389E-22
  53784.816     5.395E-22
  53784.885     5.417E-22
  53784.954     5.445E-22
  53785.024     5.450E-22
  53785.093     5.433E-22
  53785.162     5.428E-22
  53785.232     5.462E-22
  53785.301     5.516E-22
  53785.370     5.597E-22
  53785.439     5.637E-22
  53785.509     5.717E-22
  53785.578     5.879E-22
  53785.647     6.024E-22
  53785.716     6.200E-22
  53785.785     6.349E-22
  53785.854     6.610E-22
  53785.923     6.701E-22
  53785.992     6.791E-22
  53786.061     7.170E-22
  53786.130     7.571E-22
  53786.268     8.372E-22
  53786.337     8.743E-22
  53786.407     9.163E-22
  53786.476     9.717E-22
  53786.545     1.052E-21
  53786.614     1.130E-21
  53786.683     1.210E-21
  53786.752     1.279E-21
  53786.821     1.380E-21
  53786.891     1.506E-21
  53786.960     1.598E-21
  53787.029     1.719E-21
  53787.098     1.819E-21
  53787.167     1.893E-21
  53787.236     1.954E-21
  53787.305     2.027E-21
  53787.375     2.073E-21
  53787.444     2.121E-21
  53787.513     2.160E-21
  53787.582     2.179E-21
  53787.651     2.200E-21
  53787.720     2.184E-21
  53787.789     2.180E-21
  53787.859     2.188E-21
  53787.928     2.170E-21
  53787.997     2.180E-21
  53788.066     2.185E-21
  53788.135     2.188E-21
  53788.204     2.176E-21
  53788.273     2.133E-21
  53788.342     2.109E-21
  53788.412     2.115E-21
  53788.481     2.062E-21
  53788.550     1.994E-21
  53788.619     1.918E-21
  53788.688     1.810E-21
  53788.757     1.734E-21
  53788.826     1.650E-21
  53788.896     1.563E-21
  53788.965     1.461E-21
  53789.034     1.362E-21
  53789.103     1.266E-21
  53789.172     1.183E-21
  53789.241     1.104E-21
  53789.310     1.039E-21
  53789.380     9.552E-22
  53789.449     8.866E-22
  53789.518     8.542E-22
  53789.587     8.032E-22
  53789.656     7.404E-22
  53789.725     7.160E-22
  53789.794     6.912E-22
  53789.864     6.461E-22
  53789.933     6.213E-22
  53790.002     6.130E-22
  53790.071     5.894E-22
  53790.140     5.551E-22
  53790.209     5.452E-22
  53790.278     5.059E-22
  53790.347     4.513E-22
  53790.418     4.418E-22
  53790.488     4.361E-22
  53790.558     4.287E-22
  53790.627     4.257E-22
  53790.697     4.393E-22
  53790.767     4.332E-22
  53790.838     4.215E-22
  53790.908     4.035E-22
  53790.978     3.906E-22
  53791.048     3.836E-22
  53791.118     3.804E-22
  53791.188     3.775E-22
  53791.258     3.680E-22
  53791.329     3.600E-22
  53791.398     3.535E-22
  53791.467     3.483E-22
  53791.537     3.427E-22
  53791.606     3.374E-22
  53791.675     3.328E-22
  53791.745     3.295E-22
  53791.814     3.263E-22
  53791.883     3.229E-22
  53791.952     3.203E-22
  53792.022     3.194E-22
  53792.091     3.194E-22
  53792.160     3.189E-22
  53792.230     3.171E-22
  53792.299     3.138E-22
  53792.368     3.098E-22
  53792.437     3.076E-22
  53792.507     3.071E-22
  53792.576     3.071E-22
  53792.645     3.073E-22
  53792.715     3.074E-22
  53792.784     3.071E-22
  53792.853     3.068E-22
  53792.923     3.058E-22
  53792.992     3.042E-22
  53793.061     3.034E-22
  53793.130     3.032E-22
  53793.200     3.049E-22
  53793.269     3.083E-22
  53793.338     3.123E-22
  53793.408     3.164E-22
  53793.477     3.212E-22
  53793.546     3.260E-22
  53793.616     3.299E-22
  53793.685     3.330E-22
  53793.754     3.364E-22
  53793.823     3.405E-22
  53793.893     3.439E-22
  53793.962     3.457E-22
  53794.031     3.470E-22
  53794.101     3.487E-22
  53794.170     3.508E-22
  53794.239     3.517E-22
  53794.309     3.519E-22
  53794.378     3.520E-22
  53794.447     3.539E-22
  53794.516     3.568E-22
  53794.586     3.601E-22
  53794.655     3.635E-22
  53794.724     3.679E-22
  53794.794     3.733E-22
  53794.863     3.791E-22
  53794.932     3.849E-22
  53795.000     3.913E-22
  53795.068     3.975E-22
  53795.135     4.067E-22
  53795.203     4.163E-22
  53795.271     4.317E-22
  53795.338     4.458E-22
  53795.406     4.491E-22
  53795.474     4.638E-22
  53795.541     4.763E-22
  53795.609     4.965E-22
  53795.676     5.176E-22
  53795.743     5.324E-22
  53795.811     5.622E-22
  53795.947     6.342E-22
  53796.017     6.575E-22
  53796.086     6.801E-22
  53796.155     7.269E-22
  53796.224     7.792E-22
  53796.293     8.164E-22
  53796.362     8.649E-22
  53796.431     9.523E-22
  53796.501     1.069E-21
  53796.570     1.178E-21
  53796.639     1.273E-21
  53796.708     1.369E-21
  53796.777     1.476E-21
  53796.846     1.611E-21
  53796.915     1.735E-21
  53796.984     1.851E-21
  53797.054     1.959E-21
  53797.123     2.029E-21
  53797.192     2.125E-21
  53797.261     2.229E-21
  53797.330     2.309E-21
  53797.399     2.366E-21
  53797.468     2.421E-21
  53797.537     2.468E-21
  53797.607     2.468E-21
  53797.676     2.466E-21
  53797.745     2.437E-21
  53797.814     2.426E-21
  53797.883     2.416E-21
  53797.952     2.395E-21
  53798.021     2.378E-21
  53798.091     2.342E-21
  53798.160     2.252E-21
  53798.229     2.145E-21
  53798.298     2.046E-21
  53798.367     1.943E-21
  53798.436     1.833E-21
  53798.505     1.729E-21
  53798.574     1.633E-21
  53798.644     1.534E-21
  53798.713     1.443E-21
  53798.782     1.368E-21
  53798.851     1.286E-21
  53798.920     1.228E-21
  53798.989     1.161E-21
  53799.058     1.104E-21
  53799.128     1.051E-21
  53799.197     9.994E-22
  53799.266     9.689E-22
  53799.335     9.581E-22
  53799.404     9.257E-22
  53799.473     8.987E-22
  53799.542     8.926E-22
  53799.611     9.025E-22
  53799.681     9.058E-22
  53799.750     9.282E-22
  53799.819     9.910E-22
  53799.888     1.065E-21
  53799.957     1.107E-21
  53800.026     1.142E-21
  53800.095     1.200E-21
  53800.165     1.237E-21
  53800.234     1.253E-21
  53800.303     1.262E-21
  53800.372     1.247E-21
  53800.441     1.205E-21
  53800.510     1.182E-21
  53800.579     1.158E-21
  53800.648     1.127E-21
  53800.718     1.095E-21
  53800.787     1.042E-21
  53800.856     1.006E-21
  53800.925     9.817E-22
  53800.994     9.504E-22
  53801.063     9.343E-22
  53801.132     9.245E-22
  53801.201     8.971E-22
  53801.271     8.880E-22
  53801.340     8.846E-22
  53801.409     8.784E-22
  53801.478     8.768E-22
  53801.547     8.990E-22
  53801.616     8.867E-22
  53801.685     8.609E-22
  53801.755     8.645E-22
  53801.824     8.482E-22
  53801.893     8.154E-22
  53801.962     7.879E-22
  53802.031     7.557E-22
  53802.100     7.246E-22
  53802.169     7.042E-22
  53802.238     6.905E-22
  53802.308     6.701E-22
  53802.377     6.459E-22
  53802.446     6.376E-22
  53802.515     6.316E-22
  53802.584     6.153E-22
  53802.653     5.954E-22
  53802.722     5.555E-22
  53802.791     5.204E-22
  53802.861     4.987E-22
  53802.930     4.661E-22
  53802.997     4.695E-22
  53803.065     4.650E-22
  53803.132     4.536E-22
  53803.199     4.472E-22
  53803.267     4.250E-22
  53803.334     3.998E-22
  53803.402     3.914E-22
  53803.470     3.896E-22
  53803.537     3.808E-22
  53803.605     3.795E-22
  53803.672     3.805E-22
  53803.740     3.804E-22
  53803.808     3.774E-22
  53803.876     3.739E-22
  53803.943     3.704E-22
  53804.013     3.676E-22
  53804.082     3.675E-22
  53804.151     3.709E-22
  53804.220     3.762E-22
  53804.290     3.818E-22
  53804.359     3.897E-22
  53804.428     4.002E-22
  53804.498     4.148E-22
  53804.567     4.323E-22
  53804.636     4.526E-22
  53804.706     4.721E-22
  53804.775     4.898E-22
  53804.844     5.030E-22
  53804.914     5.079E-22
  53804.983     5.050E-22
  53805.052     4.959E-22
  53805.122     4.849E-22
  53805.191     4.735E-22
  53805.260     4.606E-22
  53805.330     4.472E-22
  53805.399     4.338E-22
  53805.468     4.205E-22
  53805.538     4.092E-22
  53805.607     3.993E-22
  53805.676     3.916E-22
  53805.746     3.843E-22
  53805.815     3.773E-22
  53805.884     3.730E-22
  53805.954     3.728E-22
  53806.023     3.772E-22
  53806.092     3.834E-22
  53806.162     3.909E-22
  53806.231     3.987E-22
  53806.300     4.069E-22
  53806.370     4.166E-22
  53806.439     4.278E-22
  53806.508     4.385E-22
  53806.578     4.470E-22
  53806.647     4.534E-22
  53806.716     4.568E-22
  53806.786     4.551E-22
  53806.855     4.512E-22
  53806.924     4.478E-22
  53806.994     4.448E-22
  53807.063     4.443E-22
  53807.132     4.465E-22
  53807.201     4.475E-22
  53807.270     4.458E-22
  53807.338     4.413E-22
  53807.408     4.351E-22
  53807.477     4.301E-22
  53807.545     4.251E-22
  53807.615     4.180E-22
  53807.683     4.083E-22
  53807.752     3.957E-22
  53807.822     3.811E-22
  53807.890     3.650E-22
  53807.959     3.498E-22
  53808.028     3.355E-22
  53808.097     3.214E-22
  53808.166     3.078E-22
  53808.235     2.959E-22
  53808.304     2.846E-22
  53808.372     2.748E-22
  53808.442     2.659E-22
  53808.511     2.576E-22
  53808.579     2.501E-22
  53808.649     2.428E-22
  53808.718     2.358E-22
  53808.786     2.299E-22
  53808.856     2.254E-22
  53808.924     2.215E-22
  53808.993     2.185E-22
  53809.063     2.157E-22
  53809.131     2.131E-22
  53809.200     2.106E-22
  53809.269     2.081E-22
  53809.338     2.060E-22
  53809.407     2.043E-22
  53809.476     2.029E-22
  53809.545     2.014E-22
  53809.644     1.998E-22
  53809.713     1.992E-22
  53809.783     1.989E-22
  53809.853     1.988E-22
  53809.923     1.990E-22
  53809.992     1.989E-22
  53810.063     1.987E-22
  53810.132     1.985E-22
  53810.201     1.977E-22
  53810.272     1.968E-22
  53810.341     1.959E-22
  53810.411     1.949E-22
  53810.481     1.940E-22
  53810.550     1.930E-22
  53810.620     1.920E-22
  53810.690     1.907E-22
  53810.760     1.891E-22
  53810.830     1.876E-22
  53810.899     1.865E-22
  53810.969     1.857E-22
  53811.039     1.851E-22
  53811.109     1.850E-22
  53811.178     1.852E-22
  53811.248     1.857E-22
  53811.318     1.860E-22
  53811.387     1.867E-22
  53811.457     1.873E-22
  53811.527     1.876E-22
  53811.596     1.875E-22
  53811.667     1.873E-22
  53811.736     1.867E-22
  53811.806     1.860E-22
  53811.876     1.859E-22
  53811.945     1.865E-22
  53812.015     1.872E-22
  53812.085     1.880E-22
  53812.155     1.889E-22
  53812.224     1.893E-22
  53812.295     1.899E-22
  53812.364     1.911E-22
  53812.433     1.923E-22
  53812.504     1.936E-22
  53812.573     1.949E-22
  53812.643     1.964E-22
  53812.713     1.988E-22
  53812.782     2.012E-22
  53812.853     2.033E-22
  53812.922     2.054E-22
  53812.992     2.076E-22
  53813.062     2.104E-22
  53813.131     2.135E-22
  53813.200     2.163E-22
  53813.270     2.189E-22
  53813.339     2.212E-22
  53813.408     2.245E-22
  53813.478     2.291E-22
  53813.547     2.345E-22
  53813.616     2.410E-22
  53813.686     2.472E-22
  53813.755     2.527E-22
  53813.824     2.590E-22
  53813.894     2.640E-22
  53813.963     2.673E-22
  53814.032     2.696E-22
  53814.102     2.708E-22
  53814.171     2.719E-22
  53814.241     2.731E-22
  53814.310     2.735E-22
  53814.379     2.734E-22
  53814.449     2.726E-22
  53814.518     2.708E-22
  53814.587     2.688E-22
  53814.657     2.675E-22
  53814.726     2.661E-22
  53814.795     2.656E-22
  53814.865     2.664E-22
  53814.934     2.663E-22
  53815.003     2.665E-22
  53815.073     2.677E-22
  53815.142     2.696E-22
  53815.211     2.716E-22
  53815.281     2.740E-22
  53815.350     2.778E-22
  53815.419     2.821E-22
  53815.489     2.856E-22
  53815.558     2.878E-22
  53815.628     2.889E-22
  53815.697     2.899E-22
  53815.766     2.921E-22
  53815.836     2.948E-22
  53815.905     2.977E-22
  53815.974     3.005E-22
  53816.044     3.035E-22
  53816.113     3.066E-22
  53816.182     3.093E-22
  53816.252     3.132E-22
  53816.321     3.178E-22
  53816.390     3.236E-22
  53816.460     3.302E-22
  53816.529     3.366E-22
  53816.599     3.434E-22
  53816.668     3.507E-22
  53816.737     3.594E-22
  53816.807     3.676E-22
  53816.876     3.734E-22
  53816.945     3.778E-22
  53817.084     3.841E-22
  53817.151     3.891E-22
  53817.219     3.973E-22
  53817.286     4.047E-22
  53817.354     4.159E-22
  53817.421     4.286E-22
  53817.488     4.329E-22
  53817.556     4.467E-22
  53817.623     4.594E-22
  53817.691     4.785E-22
  53817.758     4.944E-22
  53817.825     5.129E-22
  53817.892     5.288E-22
  53817.959     5.644E-22
  53818.026     5.824E-22
  53818.095     5.950E-22
  53818.164     6.336E-22
  53818.233     6.724E-22
  53818.303     7.181E-22
  53818.372     7.616E-22
  53818.441     7.824E-22
  53818.510     8.009E-22
  53818.579     8.553E-22
  53818.648     9.256E-22
  53818.717     9.986E-22
  53818.786     1.055E-21
  53818.856     1.138E-21
  53818.925     1.227E-21
  53818.994     1.333E-21
  53819.063     1.433E-21
  53819.132     1.554E-21
  53819.201     1.663E-21
  53819.270     1.820E-21
  53819.339     1.954E-21
  53819.409     2.053E-21
  53819.478     2.167E-21
  53819.547     2.277E-21
  53819.616     2.354E-21
  53819.685     2.408E-21
  53819.754     2.484E-21
  53819.823     2.522E-21
  53819.892     2.582E-21
  53819.961     2.603E-21
  53820.031     2.622E-21
  53820.100     2.621E-21
  53820.169     2.603E-21
  53820.238     2.609E-21
  53820.307     2.635E-21
  53820.376     2.624E-21
  53820.445     2.583E-21
  53820.514     2.528E-21
  53820.584     2.474E-21
  53820.653     2.416E-21
  53820.722     2.321E-21
  53820.791     2.240E-21
  53820.860     2.140E-21
  53820.929     2.057E-21
  53820.998     1.998E-21
  53821.067     1.905E-21
  53821.136     1.775E-21
  53821.206     1.645E-21
  53821.275     1.535E-21
  53821.344     1.435E-21
  53821.413     1.336E-21
  53821.482     1.266E-21
  53821.551     1.194E-21
  53821.620     1.130E-21
  53821.689     1.079E-21
  53821.759     1.014E-21
  53821.828     9.564E-22
  53821.897     8.999E-22
  53821.966     8.683E-22
  53822.035     8.255E-22
  53822.104     7.763E-22
  53822.173     7.499E-22
  53822.242     7.304E-22
  53822.311     7.295E-22
  53822.381     6.974E-22
  53822.450     6.752E-22
  53822.519     6.711E-22
  53822.588     6.568E-22
  53822.657     6.310E-22
  53822.726     6.164E-22
  53822.793     5.938E-22
  53822.861     5.721E-22
  53822.929     5.670E-22
  53822.997     5.674E-22
  53823.064     5.666E-22
  53823.132     5.590E-22
  53823.200     5.442E-22
  53823.268     5.426E-22
  53823.335     5.413E-22
  53823.403     5.372E-22
  53823.471     5.327E-22
  53823.539     5.231E-22
  53823.607     5.173E-22
  53823.675     5.142E-22
  53823.743     5.150E-22
  53823.813     5.217E-22
  53823.882     5.253E-22
  53823.951     5.253E-22
  53824.021     5.251E-22
  53824.090     5.252E-22
  53824.159     5.256E-22
  53824.229     5.296E-22
  53824.298     5.342E-22
  53824.368     5.390E-22
  53824.437     5.428E-22
  53824.506     5.427E-22
  53824.576     5.429E-22
  53824.645     5.470E-22
  53824.716     5.567E-22
  53824.786     5.653E-22
  53824.856     5.739E-22
  53824.927     5.842E-22
  53824.997     5.959E-22
  53825.067     6.127E-22
  53825.138     6.230E-22
  53825.208     6.343E-22
  53825.278     6.342E-22
  53825.349     6.341E-22
  53825.419     6.540E-22
  53825.489     6.732E-22
  53825.559     7.198E-22
  53825.629     7.400E-22
  53825.698     7.553E-22
  53825.767     7.685E-22
  53825.836     7.661E-22
  53825.905     7.742E-22
  53825.975     7.922E-22
  53826.044     8.142E-22
  53826.113     8.175E-22
  53826.182     8.560E-22
  53826.251     8.862E-22
  53826.320     9.166E-22
  53826.389     9.506E-22
  53826.458     9.999E-22
  53826.527     1.060E-21
  53826.597     1.113E-21
  53826.666     1.185E-21
  53826.735     1.255E-21
  53826.804     1.326E-21
  53826.873     1.391E-21
  53826.942     1.526E-21
  53827.011     1.695E-21
  53827.080     1.832E-21
  53827.149     1.967E-21
  53827.219     2.114E-21
  53827.288     2.236E-21
  53827.357     2.355E-21
  53827.426     2.506E-21
  53827.495     2.635E-21
  53827.564     2.753E-21
  53827.633     2.886E-21
  53827.702     2.940E-21
  53827.771     2.957E-21
  53827.841     3.000E-21
  53827.910     2.994E-21
  53827.979     2.991E-21
  53828.048     3.012E-21
  53828.117     3.003E-21
  53828.186     2.978E-21
  53828.255     2.934E-21
  53828.324     2.868E-21
  53828.394     2.791E-21
  53828.463     2.733E-21
  53828.532     2.627E-21
  53828.601     2.525E-21
  53828.670     2.400E-21
  53828.739     2.334E-21
  53828.808     2.219E-21
  53828.877     2.162E-21
  53828.946     2.078E-21
  53829.016     1.964E-21
  53829.085     1.917E-21
  53829.154     1.854E-21
  53829.223     1.788E-21
  53829.292     1.731E-21
  53829.361     1.679E-21
  53829.430     1.661E-21
  53829.499     1.655E-21
  53829.568     1.664E-21
  53829.638     1.668E-21
  53829.707     1.645E-21
  53829.776     1.645E-21
  53829.845     1.620E-21
  53829.914     1.611E-21
  53829.983     1.632E-21
  53830.052     1.643E-21
  53830.121     1.641E-21
  53830.190     1.666E-21
  53830.260     1.682E-21
  53830.329     1.703E-21
  53830.398     1.763E-21
  53830.467     1.830E-21
  53830.536     1.893E-21
  53830.605     1.943E-21
  53830.674     1.988E-21
  53830.743     2.027E-21
  53830.812     2.044E-21
  53830.882     2.089E-21
  53830.951     2.160E-21
  53831.020     2.213E-21
  53831.089     2.268E-21
  53831.158     2.340E-21
  53831.227     2.398E-21
  53831.296     2.523E-21
  53831.365     2.604E-21
  53831.434     2.697E-21
  53831.504     2.787E-21
  53831.575     2.928E-21
  53831.707     3.241E-21
  53831.777     3.373E-21
  53831.849     3.496E-21
  53831.923     3.632E-21
  53831.998     3.821E-21
  53832.113     4.269E-21
  53832.188     4.650E-21
  53832.265     5.063E-21
  53832.344     5.401E-21
  53832.424     5.703E-21
  53832.520     6.134E-21
  53832.600     6.543E-21
  53832.665     6.993E-21
  53832.765     7.457E-21
  53832.830     8.004E-21
  53832.914     8.671E-21
  53832.997     9.435E-21
  53833.080     1.022E-20
  53833.157     1.094E-20
  53833.247     1.161E-20
  53833.330     1.235E-20
  53833.407     1.320E-20
  53833.491     1.414E-20
  53833.574     1.504E-20
  53833.657     1.568E-20
  53833.740     1.602E-20
  53833.824     1.620E-20
  53833.907     1.640E-20
  53833.990     1.660E-20
  53834.074     1.663E-20
  53834.157     1.644E-20
  53834.240     1.610E-20
  53834.323     1.567E-20
  53834.407     1.523E-20
  53834.490     1.486E-20
  53834.573     1.450E-20
  53834.657     1.399E-20
  53834.740     1.335E-20
  53834.823     1.269E-20
  53834.906     1.201E-20
  53834.996     1.133E-20
  53835.073     1.072E-20
  53835.162     1.019E-20
  53835.246     9.669E-21
  53835.329     9.042E-21
  53835.412     8.381E-21
  53835.496     7.812E-21
  53835.579     7.448E-21
  53835.659     7.102E-21
  53835.738     6.681E-21
  53835.838     6.113E-21
  53835.918     5.720E-21
  53836.005     5.458E-21
  53836.071     5.294E-21
  53836.194     4.971E-21
  53836.269     4.737E-21
  53836.342     4.501E-21
  53836.413     4.314E-21
  53836.481     4.172E-21
  53836.618     3.830E-21
  53836.687     3.717E-21
  53836.756     3.604E-21
  53836.825     3.546E-21
  53836.894     3.496E-21
  53836.963     3.428E-21
  53837.032     3.404E-21
  53837.101     3.392E-21
  53837.170     3.375E-21
  53837.240     3.372E-21
  53837.309     3.353E-21
  53837.378     3.341E-21
  53837.447     3.335E-21
  53837.516     3.287E-21
  53837.585     3.268E-21
  53837.654     3.258E-21
  53837.723     3.254E-21
  53837.792     3.273E-21
  53837.861     3.348E-21
  53837.931     3.414E-21
  53838.000     3.465E-21
  53838.069     3.469E-21
  53838.138     3.503E-21
  53838.207     3.555E-21
  53838.276     3.560E-21
  53838.345     3.604E-21
  53838.414     3.675E-21
  53838.483     3.770E-21
  53838.553     3.873E-21
  53838.691     4.227E-21
  53838.760     4.432E-21
  53838.831     4.624E-21
  53838.904     4.863E-21
  53839.029     5.207E-21
  53839.101     5.419E-21
  53839.175     5.685E-21
  53839.252     6.026E-21
  53839.320     6.408E-21
  53839.399     6.874E-21
  53839.499     7.535E-21
  53839.577     8.292E-21
  53839.658     9.126E-21
  53839.740     1.005E-20
  53839.818     1.108E-20
  53839.907     1.197E-20
  53839.991     1.287E-20
  53840.074     1.373E-20
  53840.157     1.468E-20
  53840.234     1.578E-20
  53840.317     1.694E-20
  53840.389     1.804E-20
  53840.472     1.914E-20
  53840.555     2.035E-20
  53840.638     2.167E-20
  53840.722     2.302E-20
  53840.805     2.431E-20
  53840.888     2.556E-20
  53840.971     2.669E-20
  53841.054     2.757E-20
  53841.138     2.803E-20
  53841.221     2.804E-20
  53841.304     2.774E-20
  53841.387     2.729E-20
  53841.470     2.680E-20
  53841.554     2.631E-20
  53841.637     2.570E-20
  53841.720     2.486E-20
  53841.803     2.376E-20
  53841.886     2.247E-20
  53841.970     2.115E-20
  53842.065     1.995E-20
  53842.148     1.892E-20
  53842.231     1.802E-20
  53842.314     1.723E-20
  53842.398     1.653E-20
  53842.481     1.590E-20
  53842.564     1.520E-20
  53842.647     1.426E-20
  53842.730     1.313E-20
  53842.814     1.201E-20
  53842.903     1.102E-20
  53842.980     1.009E-20
  53843.069     9.165E-21
  53843.152     8.316E-21
  53843.236     7.681E-21
  53843.319     7.296E-21
  53843.401     7.066E-21
  53843.481     6.763E-21
  53843.574     6.343E-21
  53843.669     6.003E-21
  53843.747     5.760E-21
  53843.822     5.557E-21
  53843.931     5.249E-21
  53844.008     5.115E-21
  53844.076     5.038E-21
  53844.155     4.896E-21
  53844.226     4.698E-21
  53844.354     4.502E-21
  53844.425     4.394E-21
  53844.565     4.159E-21
  53844.634     4.114E-21
  53844.703     4.073E-21
  53844.772     4.152E-21
  53844.841     4.191E-21
  53844.910     4.189E-21
  53844.979     4.228E-21
  53845.048     4.343E-21
  53845.117     4.460E-21
  53845.186     4.553E-21
  53845.256     4.596E-21
  53845.325     4.596E-21
  53845.394     4.611E-21
  53845.463     4.574E-21
  53845.532     4.503E-21
  53845.601     4.380E-21
  53845.670     4.289E-21
  53845.739     4.323E-21
  53845.808     4.290E-21
  53845.877     4.276E-21
  53845.947     4.255E-21
  53846.016     4.200E-21
  53846.085     4.077E-21
  53846.154     3.923E-21
  53846.223     3.810E-21
  53846.292     3.699E-21
  53846.361     3.555E-21
  53846.430     3.470E-21
  53846.499     3.334E-21
  53846.569     3.172E-21
  53846.638     2.997E-21
  53846.707     2.844E-21
  53846.776     2.672E-21
  53846.845     2.522E-21
  53846.914     2.392E-21
  53846.983     2.275E-21
  53847.052     2.188E-21
  53847.121     2.091E-21
  53847.190     1.991E-21
  53847.260     1.906E-21
  53847.329     1.825E-21
  53847.398     1.733E-21
  53847.467     1.667E-21
  53847.536     1.616E-21
  53847.605     1.574E-21
  53847.674     1.559E-21
  53847.743     1.520E-21
  53847.812     1.490E-21
  53847.881     1.431E-21
  53847.951     1.386E-21
  53848.020     1.334E-21
  53848.089     1.301E-21
  53848.158     1.278E-21
  53848.227     1.272E-21
  53848.296     1.266E-21
  53848.365     1.227E-21
  53848.434     1.195E-21
  53848.503     1.162E-21
  53848.572     1.149E-21
  53848.642     1.129E-21
  53848.711     1.112E-21
  53848.780     1.112E-21
  53848.849     1.085E-21
  53848.918     1.050E-21
  53848.987     1.019E-21
  53849.056     1.020E-21
  53849.125     1.027E-21
  53849.194     1.039E-21
  53849.263     1.031E-21
  53849.332     1.007E-21
  53849.402     1.013E-21
  53849.471     1.005E-21
  53849.540     1.009E-21
  53849.609     1.002E-21
  53849.678     9.941E-22
  53849.747     1.016E-21
  53849.816     1.011E-21
  53849.885     1.009E-21
  53849.954     1.026E-21
  53850.023     1.027E-21
  53850.093     1.037E-21
  53850.162     1.067E-21
  53850.231     1.098E-21
  53850.300     1.108E-21
  53850.369     1.142E-21
  53850.438     1.155E-21
  53850.507     1.186E-21
  53850.576     1.228E-21
  53850.645     1.270E-21
  53850.714     1.331E-21
  53850.784     1.397E-21
  53850.853     1.494E-21
  53850.922     1.584E-21
  53850.991     1.710E-21
  53851.060     1.825E-21
  53851.129     1.922E-21
  53851.198     2.039E-21
  53851.267     2.173E-21
  53851.336     2.298E-21
  53851.405     2.429E-21
  53851.475     2.537E-21
  53851.544     2.646E-21
  53851.613     2.719E-21
  53851.682     2.766E-21
  53851.751     2.795E-21
  53851.820     2.773E-21
  53851.889     2.766E-21
  53851.958     2.731E-21
  53852.027     2.684E-21
  53852.096     2.635E-21
  53852.166     2.522E-21
  53852.235     2.431E-21
  53852.304     2.353E-21
  53852.373     2.284E-21
  53852.442     2.179E-21
  53852.511     2.082E-21
  53852.580     2.013E-21
  53852.649     1.913E-21
  53852.718     1.819E-21
  53852.787     1.750E-21
  53852.856     1.666E-21
  53852.926     1.567E-21
  53852.995     1.508E-21
  53853.064     1.455E-21
  53853.133     1.372E-21
  53853.202     1.304E-21
  53853.271     1.237E-21
  53853.340     1.200E-21
  53853.409     1.199E-21
  53853.478     1.181E-21
  53853.547     1.159E-21
  53853.617     1.146E-21
  53853.686     1.122E-21
  53853.755     1.108E-21
  53853.824     1.092E-21
  53853.893     1.069E-21
  53853.962     1.043E-21
  53854.031     1.025E-21
  53854.100     1.033E-21
  53854.169     9.987E-22
  53854.238     9.734E-22
  53854.307     9.705E-22
  53854.377     9.486E-22
  53854.446     9.251E-22
  53854.515     9.157E-22
  53854.584     9.029E-22
  53854.653     8.709E-22
  53854.722     8.354E-22
  53854.791     8.061E-22
  53854.860     7.744E-22
  53854.929     7.669E-22
  53854.997     7.572E-22
  53855.065     7.303E-22
  53855.133     6.863E-22
  53855.201     6.642E-22
  53855.269     6.420E-22
  53855.337     6.160E-22
  53855.406     5.863E-22
  53855.473     5.623E-22
  53855.542     5.464E-22
  53855.610     5.343E-22
  53855.679     5.204E-22
  53855.747     5.080E-22
  53855.815     4.975E-22
  53855.884     4.837E-22
  53855.952     4.716E-22
  53856.022     4.610E-22
  53856.091     4.516E-22
  53856.161     4.425E-22
  53856.230     4.345E-22
  53856.300     4.295E-22
  53856.369     4.273E-22
  53856.439     4.238E-22
  53856.508     4.195E-22
  53856.577     4.147E-22
  53856.647     4.089E-22
  53856.716     4.037E-22
  53856.786     3.998E-22
  53856.855     3.953E-22
  53856.925     3.910E-22
  53856.994     3.887E-22
  53857.064     3.872E-22
  53857.133     3.861E-22
  53857.202     3.850E-22
  53857.271     3.835E-22
  53857.341     3.798E-22
  53857.409     3.752E-22
  53857.478     3.721E-22
  53857.548     3.707E-22
  53857.617     3.707E-22
  53857.686     3.706E-22
  53857.755     3.695E-22
  53857.825     3.678E-22
  53857.893     3.653E-22
  53857.963     3.625E-22
  53858.032     3.592E-22
  53858.101     3.563E-22
  53858.170     3.545E-22
  53858.240     3.537E-22
  53858.309     3.539E-22
  53858.377     3.541E-22
  53858.447     3.541E-22
  53858.516     3.535E-22
  53858.585     3.522E-22
  53858.654     3.503E-22
  53858.724     3.480E-22
  53858.792     3.466E-22
  53858.862     3.457E-22
  53858.931     3.448E-22
  53859.000     3.431E-22
  53859.069     3.409E-22
  53859.139     3.392E-22
  53859.208     3.373E-22
  53859.277     3.353E-22
  53859.346     3.335E-22
  53859.415     3.322E-22
  53859.484     3.317E-22
  53859.553     3.309E-22
  53859.623     3.293E-22
  53859.692     3.280E-22
  53859.761     3.264E-22
  53859.830     3.252E-22
  53859.899     3.243E-22
  53859.968     3.236E-22
  53860.038     3.236E-22
  53860.107     3.237E-22
  53860.176     3.233E-22
  53860.245     3.238E-22
  53860.314     3.243E-22
  53860.383     3.245E-22
  53860.452     3.250E-22
  53860.522     3.249E-22
  53860.591     3.248E-22
  53860.660     3.256E-22
  53860.729     3.266E-22
  53860.799     3.278E-22
  53860.867     3.282E-22
  53860.937     3.290E-22
  53861.006     3.307E-22
  53861.075     3.319E-22
  53861.144     3.331E-22
  53861.213     3.355E-22
  53861.283     3.387E-22
  53861.352     3.412E-22
  53861.421     3.432E-22
  53861.490     3.447E-22
  53861.559     3.466E-22
  53861.628     3.492E-22
  53861.698     3.527E-22
  53861.766     3.563E-22
  53861.836     3.593E-22
  53861.905     3.621E-22
  53861.975     3.647E-22
  53862.039     3.611E-22
  53862.109     3.654E-22
  53862.178     3.717E-22
  53862.247     3.760E-22
  53862.317     3.850E-22
  53862.386     3.950E-22
  53862.455     4.047E-22
  53862.524     4.143E-22
  53862.594     4.277E-22
  53862.662     4.335E-22
  53862.732     4.391E-22
  53862.801     4.428E-22
  53862.870     4.609E-22
  53862.939     4.916E-22
  53863.008     5.261E-22
  53863.077     5.504E-22
  53863.146     5.646E-22
  53863.215     5.836E-22
  53863.283     6.050E-22
  53863.352     6.178E-22
  53863.421     6.458E-22
  53863.490     6.735E-22
  53863.559     7.070E-22
  53863.628     7.393E-22
  53863.697     7.669E-22
  53863.766     8.104E-22
  53863.835     8.539E-22
  53863.904     9.125E-22
  53863.973     9.996E-22
  53864.042     1.113E-21
  53864.111     1.208E-21
  53864.180     1.275E-21
  53864.249     1.385E-21
  53864.319     1.518E-21
  53864.388     1.654E-21
  53864.457     1.780E-21
  53864.526     1.912E-21
  53864.595     2.056E-21
  53864.664     2.187E-21
  53864.733     2.312E-21
  53864.802     2.433E-21
  53864.871     2.520E-21
  53864.940     2.551E-21
  53865.009     2.560E-21
  53865.079     2.593E-21
  53865.148     2.626E-21
  53865.217     2.646E-21
  53865.286     2.647E-21
  53865.355     2.603E-21
  53865.424     2.592E-21
  53865.493     2.522E-21
  53865.562     2.505E-21
  53865.631     2.461E-21
  53865.700     2.352E-21
  53865.769     2.231E-21
  53865.839     2.135E-21
  53865.908     2.058E-21
  53865.977     1.970E-21
  53866.046     1.849E-21
  53866.115     1.732E-21
  53866.184     1.616E-21
  53866.253     1.511E-21
  53866.322     1.441E-21
  53866.391     1.372E-21
  53866.460     1.290E-21
  53866.529     1.220E-21
  53866.598     1.164E-21
  53866.668     1.118E-21
  53866.737     1.056E-21
  53866.806     1.014E-21
  53866.875     9.784E-22
  53866.944     9.498E-22
  53867.013     9.192E-22
  53867.082     8.693E-22
  53867.151     8.501E-22
  53867.220     8.435E-22
  53867.289     8.418E-22
  53867.358     8.240E-22
  53867.428     7.949E-22
  53867.497     7.531E-22
  53867.566     7.414E-22
  53867.635     7.475E-22
  53867.704     7.711E-22
  53867.773     7.825E-22
  53867.842     7.874E-22
  53867.911     8.136E-22
  53867.980     8.379E-22
  53868.049     8.866E-22
  53868.118     9.309E-22
  53868.187     9.729E-22
  53868.257     1.032E-21
  53868.326     1.083E-21
  53868.395     1.136E-21
  53868.464     1.215E-21
  53868.533     1.284E-21
  53868.602     1.346E-21
  53868.671     1.408E-21
  53868.740     1.448E-21
  53868.809     1.503E-21
  53868.878     1.535E-21
  53868.947     1.573E-21
  53869.017     1.619E-21
  53869.086     1.660E-21
  53869.155     1.696E-21
  53869.224     1.677E-21
  53869.293     1.654E-21
  53869.362     1.617E-21
  53869.431     1.575E-21
  53869.500     1.537E-21
  53869.569     1.499E-21
  53869.638     1.470E-21
  53869.707     1.430E-21
  53869.776     1.367E-21
  53869.846     1.302E-21
  53869.915     1.254E-21
  53869.984     1.221E-21
  53870.053     1.164E-21
  53870.122     1.138E-21
  53870.191     1.120E-21
  53870.260     1.085E-21
  53870.329     1.036E-21
  53870.398     9.570E-22
  53870.467     9.124E-22
  53870.536     8.929E-22
  53870.605     8.735E-22
  53870.675     8.566E-22
  53870.744     8.562E-22
  53870.813     8.130E-22
  53870.882     7.717E-22
  53870.951     7.562E-22
  53871.020     7.242E-22
  53871.089     6.937E-22
  53871.158     6.871E-22
  53871.227     6.711E-22
  53871.296     6.600E-22
  53871.365     6.674E-22
  53871.435     6.415E-22
  53871.573     6.222E-22
  53871.641     6.028E-22
  53871.710     5.867E-22
  53871.778     5.637E-22
  53871.847     5.616E-22
  53871.915     5.731E-22
  53871.984     5.705E-22
  53872.052     5.688E-22
  53872.121     5.497E-22
  53872.190     5.325E-22
  53872.259     5.149E-22
  53872.328     4.942E-22
  53872.397     4.787E-22
  53872.465     4.733E-22
  53872.535     4.674E-22
  53872.603     4.626E-22
  53872.673     4.580E-22
  53872.741     4.443E-22
  53872.811     4.329E-22
  53872.880     4.221E-22
  53872.949     4.140E-22
  53873.018     4.087E-22
  53873.088     4.059E-22
  53873.157     4.044E-22
  53873.227     4.030E-22
  53873.296     4.018E-22
  53873.366     4.008E-22
  53873.435     3.996E-22
  53873.505     3.986E-22
  53873.574     3.992E-22
  53873.644     4.012E-22
  53873.713     4.048E-22
  53873.783     4.093E-22
  53873.852     4.154E-22
  53873.922     4.212E-22
  53873.991     4.250E-22
  53874.061     4.268E-22
  53874.130     4.281E-22
  53874.200     4.293E-22
  53874.269     4.314E-22
  53874.339     4.346E-22
  53874.408     4.380E-22
  53874.478     4.417E-22
  53874.547     4.444E-22
  53874.617     4.475E-22
  53874.685     4.509E-22
  53874.755     4.548E-22
  53874.824     4.614E-22
  53874.893     4.732E-22
  53874.962     4.735E-22
  53875.031     4.733E-22
  53875.100     4.778E-22
  53875.169     4.959E-22
  53875.238     5.194E-22
  53875.307     5.434E-22
  53875.375     5.458E-22
  53875.444     5.512E-22
  53875.513     5.777E-22
  53875.581     5.937E-22
  53875.651     6.128E-22
  53875.719     6.266E-22
  53875.788     6.429E-22
  53875.856     6.768E-22
  53875.925     7.143E-22
  53875.994     7.228E-22
  53876.063     7.583E-22
  53876.132     7.991E-22
  53876.201     8.221E-22
  53876.270     8.561E-22
  53876.339     8.911E-22
  53876.408     9.321E-22
  53876.478     9.767E-22
  53876.547     1.060E-21
  53876.616     1.135E-21
  53876.685     1.198E-21
  53876.754     1.289E-21
  53876.823     1.398E-21
  53876.892     1.510E-21
  53876.961     1.631E-21
  53877.030     1.754E-21
  53877.099     1.867E-21
  53877.168     1.984E-21
  53877.237     2.066E-21
  53877.307     2.154E-21
  53877.376     2.238E-21
  53877.445     2.327E-21
  53877.514     2.390E-21
  53877.583     2.448E-21
  53877.652     2.495E-21
  53877.721     2.512E-21
  53877.790     2.530E-21
  53877.859     2.569E-21
  53877.928     2.582E-21
  53877.997     2.586E-21
  53878.066     2.520E-21
  53878.135     2.439E-21
  53878.205     2.360E-21
  53878.274     2.276E-21
  53878.343     2.199E-21
  53878.412     2.109E-21
  53878.481     2.019E-21
  53878.550     1.947E-21
  53878.619     1.888E-21
  53878.688     1.829E-21
  53878.757     1.763E-21
  53878.826     1.730E-21
  53878.895     1.704E-21
  53878.964     1.696E-21
  53879.033     1.723E-21
  53879.103     1.749E-21
  53879.172     1.762E-21
  53879.241     1.777E-21
  53879.310     1.809E-21
  53879.379     1.852E-21
  53879.448     1.878E-21
  53879.517     1.868E-21
  53879.586     1.883E-21
  53879.655     1.920E-21
  53879.724     1.912E-21
  53879.793     1.905E-21
  53879.862     1.900E-21
  53879.932     1.902E-21
  53880.001     1.903E-21
  53880.070     1.928E-21
  53880.139     1.949E-21
  53880.208     1.964E-21
  53880.277     1.984E-21
  53880.346     1.987E-21
  53880.415     1.975E-21
  53880.484     1.964E-21
  53880.553     1.945E-21
  53880.622     1.892E-21
  53880.691     1.859E-21
  53880.760     1.817E-21
  53880.830     1.798E-21
  53880.899     1.765E-21
  53880.968     1.727E-21
  53881.037     1.693E-21
  53881.106     1.681E-21
  53881.175     1.671E-21
  53881.244     1.665E-21
  53881.313     1.675E-21
  53881.382     1.665E-21
  53881.451     1.664E-21
  53881.520     1.685E-21
  53881.589     1.667E-21
  53881.658     1.696E-21
  53881.728     1.690E-21
  53881.797     1.687E-21
  53881.866     1.680E-21
  53881.935     1.677E-21
  53882.004     1.651E-21
  53882.073     1.628E-21
  53882.142     1.619E-21
  53882.211     1.636E-21
  53882.280     1.631E-21
  53882.349     1.664E-21
  53882.418     1.676E-21
  53882.487     1.659E-21
  53882.556     1.666E-21
  53882.626     1.652E-21
  53882.695     1.684E-21
  53882.764     1.730E-21
  53882.833     1.771E-21
  53882.902     1.793E-21
  53882.971     1.789E-21
  53883.040     1.777E-21
  53883.109     1.765E-21
  53883.178     1.748E-21
  53883.247     1.700E-21
  53883.316     1.672E-21
  53883.385     1.625E-21
  53883.454     1.588E-21
  53883.524     1.547E-21
  53883.593     1.504E-21
  53883.662     1.482E-21
  53883.731     1.457E-21
  53883.800     1.433E-21
  53883.869     1.384E-21
  53883.938     1.351E-21
  53884.007     1.297E-21
  53884.076     1.249E-21
  53884.145     1.213E-21
  53884.214     1.156E-21
  53884.283     1.113E-21
  53884.352     1.089E-21
  53884.422     1.060E-21
  53884.491     1.016E-21
  53884.560     9.983E-22
  53884.629     1.013E-21
  53884.698     1.011E-21
  53884.767     9.917E-22
  53884.836     9.829E-22
  53884.905     9.516E-22
  53884.974     9.314E-22
  53885.043     9.237E-22
  53885.112     9.316E-22
  53885.181     9.497E-22
  53885.250     9.541E-22
  53885.320     9.629E-22
  53885.389     9.675E-22
  53885.458     9.607E-22
  53885.527     9.425E-22
  53885.596     9.304E-22
  53885.665     9.590E-22
  53885.734     9.484E-22
  53885.803     9.688E-22
  53885.872     9.919E-22
  53885.941     9.891E-22
  53886.010     9.799E-22
  53886.079     9.839E-22
  53886.148     9.675E-22
  53886.217     9.566E-22
  53886.287     9.683E-22
  53886.356     9.657E-22
  53886.425     9.698E-22
  53886.494     9.755E-22
  53886.563     9.805E-22
  53886.632     9.723E-22
  53886.701     9.661E-22
  53886.770     9.707E-22
  53886.839     9.782E-22
  53886.908     9.749E-22
  53886.977     9.916E-22
  53887.046     1.015E-21
  53887.115     1.004E-21
  53887.185     1.021E-21
  53887.254     1.024E-21
  53887.323     1.041E-21
  53887.392     1.061E-21
  53887.461     1.078E-21
  53887.530     1.084E-21
  53887.599     1.108E-21
  53887.668     1.115E-21
  53887.737     1.126E-21
  53887.806     1.140E-21
  53887.875     1.162E-21
  53887.944     1.176E-21
  53888.013     1.195E-21
  53888.082     1.220E-21
  53888.152     1.274E-21
  53888.221     1.300E-21
  53888.290     1.315E-21
  53888.359     1.355E-21
  53888.428     1.381E-21
  53888.497     1.385E-21
  53888.566     1.405E-21
  53888.635     1.437E-21
  53888.704     1.455E-21
  53888.773     1.493E-21
  53888.842     1.519E-21
  53888.911     1.537E-21
  53888.980     1.553E-21
  53889.050     1.573E-21
  53889.119     1.617E-21
  53889.188     1.653E-21
  53889.257     1.702E-21
  53889.326     1.727E-21
  53889.395     1.788E-21
  53889.464     1.835E-21
  53889.533     1.864E-21
  53889.602     1.914E-21
  53889.671     1.950E-21
  53889.740     1.980E-21
  53889.809     2.011E-21
  53889.878     2.029E-21
  53889.947     2.091E-21
  53890.017     2.119E-21
  53890.086     2.192E-21
  53890.155     2.244E-21
  53890.224     2.309E-21
  53890.293     2.405E-21
  53890.362     2.439E-21
  53890.431     2.523E-21
  53890.500     2.624E-21
  53890.569     2.706E-21
  53890.638     2.764E-21
  53890.707     2.874E-21
  53890.776     2.942E-21
  53890.845     3.013E-21
  53890.914     3.127E-21
  53890.984     3.231E-21
  53891.329     3.889E-21
  53891.469     4.275E-21
  53891.542     4.525E-21
  53891.668     5.024E-21
  53891.740     5.343E-21
  53891.816     5.646E-21
  53891.893     5.978E-21
  53891.974     6.304E-21
  53892.076     6.748E-21
  53892.154     7.152E-21
  53892.237     7.565E-21
  53892.322     8.043E-21
  53892.404     8.572E-21
  53892.488     9.213E-21
  53892.572     1.001E-20
  53892.655     1.097E-20
  53892.739     1.207E-20
  53892.823     1.326E-20
  53892.907     1.454E-20
  53892.990     1.589E-20
  53893.073     1.731E-20
  53893.157     1.879E-20
  53893.241     2.021E-20
  53893.325     2.143E-20
  53893.408     2.246E-20
  53893.492     2.353E-20
  53893.576     2.487E-20
  53893.660     2.645E-20
  53893.742     2.797E-20
  53893.825     2.908E-20
  53893.910     2.942E-20
  53893.992     2.884E-20
  53894.077     2.759E-20
  53894.162     2.633E-20
  53894.245     2.556E-20
  53894.329     2.510E-20
  53894.413     2.454E-20
  53894.496     2.381E-20
  53894.581     2.301E-20
  53894.665     2.216E-20
  53894.748     2.142E-20
  53894.832     2.096E-20
  53894.916     2.055E-20
  53895.000     1.982E-20
  53895.083     1.883E-20
  53895.167     1.781E-20
  53895.252     1.690E-20
  53895.335     1.615E-20
  53895.419     1.542E-20
  53895.503     1.463E-20
  53895.586     1.375E-20
  53895.670     1.276E-20
  53895.754     1.177E-20
  53895.838     1.107E-20
  53895.922     1.074E-20
  53896.006     1.051E-20
  53896.089     1.012E-20
  53896.175     9.555E-21
  53896.259     8.987E-21
  53896.342     8.618E-21
  53896.427     8.434E-21
  53896.510     8.329E-21
  53896.589     8.208E-21
  53896.668     8.018E-21
  53896.770     7.771E-21
  53896.849     7.505E-21
  53896.926     7.240E-21
  53897.062     6.489E-21
  53897.199     6.636E-21
  53897.268     6.771E-21
  53897.340     6.765E-21
  53897.414     6.812E-21
  53897.489     6.961E-21
  53897.608     7.112E-21
  53897.683     7.228E-21
  53897.759     7.405E-21
  53897.838     7.630E-21
  53897.942     7.991E-21
  53898.019     8.183E-21
  53898.100     8.336E-21
  53898.183     8.655E-21
  53898.267     9.247E-21
  53898.352     1.001E-20
  53898.435     1.060E-20
  53898.519     1.112E-20
  53898.603     1.168E-20
  53898.687     1.240E-20
  53898.770     1.329E-20
  53898.854     1.426E-20
  53898.938     1.526E-20
  53899.021     1.634E-20
  53899.105     1.754E-20
  53899.189     1.890E-20
  53899.273     2.032E-20
  53899.356     2.171E-20
  53899.440     2.327E-20
  53899.524     2.529E-20
  53899.608     2.773E-20
  53899.690     3.032E-20
  53899.774     3.279E-20
  53899.857     3.510E-20
  53899.941     3.728E-20
  53900.025     3.908E-20
  53900.108     4.039E-20
  53900.192     4.160E-20
  53900.276     4.307E-20
  53900.360     4.442E-20
  53900.444     4.498E-20
  53900.527     4.471E-20
  53900.611     4.419E-20
  53900.695     4.384E-20
  53900.779     4.352E-20
  53900.863     4.277E-20
  53900.946     4.128E-20
  53901.030     3.920E-20
  53901.114     3.711E-20
  53901.198     3.551E-20
  53901.282     3.422E-20
  53901.365     3.261E-20
  53901.450     3.048E-20
  53901.534     2.828E-20
  53901.619     2.642E-20
  53901.702     2.476E-20
  53901.786     2.292E-20
  53901.871     2.095E-20
  53901.954     1.931E-20
  53902.038     1.809E-20
  53902.122     1.694E-20
  53902.206     1.567E-20
  53902.290     1.432E-20
  53902.374     1.304E-20
  53902.457     1.200E-20
  53902.543     1.118E-20
  53902.627     1.064E-20
  53902.709     1.029E-20
  53902.790     9.949E-21
  53902.871     9.498E-21
  53902.967     8.897E-21
  53903.047     8.370E-21
  53903.127     7.849E-21
  53903.206     7.323E-21
  53903.282     6.781E-21
  53903.382     6.308E-21
  53903.470     5.958E-21
  53903.545     5.701E-21
  53903.618     5.491E-21
  53903.691     5.275E-21
  53903.817     4.930E-21
  53903.889     4.697E-21
  53903.961     4.518E-21
  53904.031     4.249E-21
  53904.100     4.027E-21
  53904.236     3.803E-21
  53904.306     3.718E-21
  53904.375     3.648E-21
  53904.444     3.524E-21
  53904.514     3.421E-21
  53904.583     3.294E-21
  53904.652     3.183E-21
  53904.721     3.068E-21
  53904.791     2.976E-21
  53904.859     2.903E-21
  53904.929     2.833E-21
  53905.068     2.639E-21
  53905.138     2.597E-21
  53905.207     2.508E-21
  53905.277     2.440E-21
  53905.346     2.379E-21
  53905.416     2.309E-21
  53905.486     2.282E-21
  53905.555     2.230E-21
  53905.625     2.193E-21
  53905.694     2.147E-21
  53905.764     2.096E-21
  53905.833     2.043E-21
  53905.903     1.986E-21
  53905.973     1.936E-21
  53906.042     1.893E-21
  53906.112     1.869E-21
  53906.181     1.822E-21
  53906.251     1.770E-21
  53906.320     1.728E-21
  53906.390     1.691E-21
  53906.460     1.652E-21
  53906.539     1.608E-21
  53906.609     1.579E-21
  53906.678     1.570E-21
  53906.748     1.528E-21
  53906.818     1.501E-21
  53906.887     1.458E-21
  53906.957     1.428E-21
  53907.026     1.408E-21
  53907.096     1.389E-21
  53907.165     1.371E-21
  53907.235     1.335E-21
  53907.305     1.314E-21
  53907.374     1.297E-21
  53907.444     1.267E-21
  53907.513     1.242E-21
  53907.583     1.226E-21
  53907.652     1.217E-21
  53907.722     1.199E-21
  53907.792     1.175E-21
  53907.861     1.162E-21
  53907.931     1.146E-21
  53908.000     1.136E-21
  53908.070     1.118E-21
  53908.140     1.106E-21
  53908.209     1.094E-21
  53908.279     1.083E-21
  53908.348     1.059E-21
  53908.418     1.050E-21
  53908.487     1.040E-21
  53908.557     1.042E-21
  53908.627     1.031E-21
  53908.696     1.026E-21
  53908.766     1.019E-21
  53908.835     1.005E-21
  53908.905     9.846E-22
  53908.974     9.678E-22
  53909.044     9.576E-22
  53909.114     9.447E-22
  53909.183     9.370E-22
  53909.253     9.251E-22
  53909.322     9.202E-22
  53909.392     9.151E-22
  53909.461     9.148E-22
  53909.531     9.047E-22
  53909.601     8.908E-22
  53909.670     8.803E-22
  53909.740     8.806E-22
  53909.809     8.824E-22
  53909.879     8.742E-22
  53909.948     8.872E-22
  53910.018     8.980E-22
  53910.088     8.957E-22
  53910.157     8.824E-22
  53910.227     8.765E-22
  53910.296     8.658E-22
  53910.366     8.627E-22
  53910.436     8.621E-22
  53910.505     8.639E-22
  53910.575     8.532E-22
  53910.644     8.465E-22
  53910.714     8.401E-22
  53910.783     8.251E-22
  53910.853     8.201E-22
  53910.923     8.010E-22
  53910.992     7.856E-22
  53911.062     7.729E-22
  53911.131     7.514E-22
  53911.201     7.341E-22
  53911.270     7.207E-22
  53911.340     7.157E-22
  53911.410     7.103E-22
  53911.479     6.941E-22
  53911.549     6.908E-22
  53911.618     6.769E-22
  53911.688     6.628E-22
  53911.758     6.546E-22
  53911.827     6.399E-22
  53911.897     6.340E-22
  53911.966     6.304E-22
  53912.036     6.321E-22
  53912.106     6.323E-22
  53912.174     6.298E-22
  53912.244     6.273E-22
  53912.314     6.311E-22
  53912.382     6.355E-22
  53912.452     6.390E-22
  53912.520     6.427E-22
  53912.590     6.448E-22
  53912.660     6.488E-22
  53912.728     6.530E-22
  53912.798     6.567E-22
  53912.868     6.565E-22
  53912.936     6.577E-22
  53913.006     6.605E-22
  53913.074     6.649E-22
  53913.144     6.661E-22
  53913.214     6.653E-22
  53913.282     6.612E-22
  53913.352     6.546E-22
  53913.421     6.469E-22
  53913.490     6.385E-22
  53913.560     6.268E-22
  53913.628     6.156E-22
  53913.698     6.062E-22
  53913.767     5.998E-22
  53913.836     5.949E-22
  53913.906     5.932E-22
  53913.975     5.929E-22
  53914.044     5.936E-22
  53914.113     5.958E-22
  53914.182     5.976E-22
  53914.252     5.985E-22
  53914.321     5.985E-22
  53914.390     5.964E-22
  53914.459     5.950E-22
  53914.529     5.937E-22
  53914.598     5.937E-22
  53914.667     5.943E-22
  53914.736     5.948E-22
  53914.806     5.944E-22
  53914.875     5.935E-22
  53914.944     5.909E-22
  53915.013     5.866E-22
  53915.083     5.822E-22
  53915.152     5.779E-22
  53915.221     5.767E-22
  53915.291     5.770E-22
  53915.359     5.790E-22
  53915.429     5.802E-22
  53915.498     5.805E-22
  53915.567     5.803E-22
  53915.637     5.803E-22
  53915.705     5.808E-22
  53915.775     5.813E-22
  53915.845     5.792E-22
  53915.913     5.726E-22
  53915.983     5.631E-22
  53916.052     5.516E-22
  53916.121     5.398E-22
  53916.191     5.279E-22
  53916.259     5.166E-22
  53916.329     5.075E-22
  53916.399     4.999E-22
  53916.467     4.931E-22
  53916.537     4.883E-22
  53916.605     4.848E-22
  53916.675     4.838E-22
  53916.745     4.843E-22
  53916.813     4.852E-22
  53916.883     4.866E-22
  53916.952     4.882E-22
  53917.021     4.892E-22
  53917.091     4.895E-22
  53917.159     4.895E-22
  53917.229     4.914E-22
  53917.299     4.958E-22
  53917.367     5.003E-22
  53917.437     5.034E-22
  53917.506     5.032E-22
  53917.575     5.003E-22
  53917.645     4.949E-22
  53917.713     4.857E-22
  53917.783     4.749E-22
  53917.852     4.645E-22
  53917.921     4.549E-22
  53918.060     4.392E-22
  53918.130     4.307E-22
  53918.200     4.239E-22
  53918.269     4.189E-22
  53918.339     4.134E-22
  53918.408     4.086E-22
  53918.478     4.047E-22
  53918.548     4.015E-22
  53918.617     3.992E-22
  53918.687     3.985E-22
  53918.757     3.992E-22
  53918.826     3.998E-22
  53918.896     3.997E-22
  53918.965     3.992E-22
  53919.035     3.999E-22
  53919.105     4.005E-22
  53919.174     3.997E-22
  53919.244     3.983E-22
  53919.313     3.972E-22
  53919.383     3.970E-22
  53919.453     3.992E-22
  53919.522     4.037E-22
  53919.592     4.086E-22
  53919.662     4.139E-22
  53919.731     4.191E-22
  53919.801     4.235E-22
  53919.870     4.272E-22
  53919.940     4.318E-22
  53920.010     4.365E-22
  53920.079     4.421E-22
  53920.149     4.492E-22
  53920.219     4.584E-22
  53920.288     4.721E-22
  53920.358     4.892E-22
  53920.427     5.124E-22
  53920.497     5.409E-22
  53920.567     5.724E-22
  53920.636     6.104E-22
  53920.706     6.521E-22
  53920.776     6.945E-22
  53920.845     7.354E-22
  53920.915     7.691E-22
  53920.984     7.930E-22
  53921.054     8.062E-22
  53921.124     8.091E-22
  53921.193     8.058E-22
  53921.263     7.938E-22
  53921.333     7.745E-22
  53921.402     7.513E-22
  53921.472     7.255E-22
  53921.541     6.984E-22
  53921.611     6.731E-22
  53921.681     6.500E-22
  53921.750     6.306E-22
  53921.820     6.172E-22
  53921.890     6.090E-22
  53921.959     6.033E-22
  53922.029     6.035E-22
  53922.098     6.116E-22
  53922.168     6.258E-22
  53922.238     6.436E-22
  53922.307     6.635E-22
  53922.377     6.853E-22
  53922.447     7.090E-22
  53922.516     7.343E-22
  53922.586     7.580E-22
  53922.655     7.753E-22
  53922.725     7.846E-22
  53922.795     7.901E-22
  53922.864     7.932E-22
  53922.934     7.935E-22
  53923.004     7.898E-22
  53923.073     7.841E-22
  53923.143     7.771E-22
  53923.213     7.732E-22
  53923.282     7.714E-22
  53923.352     7.686E-22
  53923.421     7.700E-22
  53923.491     7.711E-22
  53923.561     7.671E-22
  53923.630     7.605E-22
  53923.700     7.511E-22
  53923.770     7.365E-22
  53923.839     7.176E-22
  53923.909     6.952E-22
  53923.978     6.696E-22
  53924.048     6.416E-22
  53924.118     6.149E-22
  53924.187     5.921E-22
  53924.257     5.758E-22
  53924.327     5.631E-22
  53924.396     5.520E-22
  53924.466     5.415E-22
  53924.536     5.283E-22
  53924.605     5.133E-22
  53924.675     4.975E-22
  53924.744     4.784E-22
  53924.814     4.605E-22
  53924.884     4.462E-22
  53924.953     4.346E-22
  53925.023     4.250E-22
  53925.093     4.177E-22
  53925.162     4.123E-22
  53925.232     4.086E-22
  53925.302     4.057E-22
  53925.371     4.041E-22
  53925.441     4.027E-22
  53925.510     4.000E-22
  53925.580     3.968E-22
  53925.650     3.926E-22
  53925.719     3.879E-22
  53925.789     3.829E-22
  53925.859     3.792E-22
  53925.928     3.772E-22
  53925.998     3.764E-22
  53926.068     3.755E-22
  53926.137     3.758E-22
  53926.207     3.778E-22
  53926.276     3.794E-22
  53926.346     3.794E-22
  53926.416     3.783E-22
  53926.485     3.761E-22
  53926.555     3.734E-22
  53926.625     3.717E-22
  53926.694     3.707E-22
  53926.764     3.702E-22
  53926.834     3.707E-22
  53926.903     3.714E-22
  53926.973     3.719E-22
  53927.042     3.731E-22
  53927.112     3.738E-22
  53927.182     3.729E-22
  53927.251     3.718E-22
  53927.321     3.711E-22
  53927.391     3.726E-22
  53927.460     3.749E-22
  53927.530     3.772E-22
  53927.600     3.802E-22
  53927.669     3.835E-22
  53927.739     3.873E-22
  53927.809     3.896E-22
  53927.878     3.898E-22
  53927.948     3.902E-22
  53928.017     3.900E-22
  53928.087     3.899E-22
  53928.157     3.912E-22
  53928.226     3.925E-22
  53928.296     3.948E-22
  53928.366     3.977E-22
  53928.435     4.013E-22
  53928.505     4.059E-22
  53928.575     4.091E-22
  53928.644     4.108E-22
  53928.714     4.125E-22
  53928.784     4.137E-22
  53928.853     4.150E-22
  53928.923     4.170E-22
  53928.992     4.205E-22
  53929.062     4.243E-22
  53929.132     4.280E-22
  53929.201     4.328E-22
  53929.271     4.378E-22
  53929.341     4.440E-22
  53929.410     4.510E-22
  53929.480     4.564E-22
  53929.550     4.602E-22
  53929.619     4.612E-22
  53929.689     4.632E-22
  53929.759     4.685E-22
  53929.828     4.758E-22
  53929.898     4.858E-22
  53929.968     4.962E-22
  53930.037     5.041E-22
  53930.107     5.076E-22
  53930.176     5.090E-22
  53930.246     5.103E-22
  53930.316     5.124E-22
  53930.385     5.160E-22
  53930.455     5.212E-22
  53930.525     5.284E-22
  53930.594     5.340E-22
  53930.664     5.365E-22
  53930.734     5.366E-22
  53930.803     5.353E-22
  53930.873     5.341E-22
  53930.943     5.344E-22
  53931.012     5.357E-22
  53931.082     5.352E-22
  53931.152     5.319E-22
  53931.221     5.283E-22
  53931.291     5.259E-22
  53931.361     5.250E-22
  53931.430     5.252E-22
  53931.500     5.249E-22
  53931.569     5.214E-22
  53931.639     5.157E-22
  53931.709     5.123E-22
  53931.778     5.132E-22
  53931.848     5.144E-22
  53931.918     5.155E-22
  53931.987     5.192E-22
  53932.057     5.246E-22
  53932.127     5.322E-22
  53932.196     5.390E-22
  53932.266     5.437E-22
  53932.336     5.462E-22
  53932.405     5.466E-22
  53932.475     5.471E-22
  53932.545     5.504E-22
  53932.614     5.555E-22
  53932.684     5.596E-22
  53932.754     5.634E-22
  53932.823     5.648E-22
  53932.893     5.639E-22
  53932.963     5.627E-22
  53933.032     5.624E-22
  53933.102     5.627E-22
  53933.172     5.648E-22
  53933.241     5.699E-22
  53933.311     5.779E-22
  53933.380     5.866E-22
  53933.450     5.970E-22
  53933.520     6.067E-22
  53933.589     6.149E-22
  53933.659     6.223E-22
  53933.729     6.283E-22
  53933.798     6.348E-22
  53933.868     6.428E-22
  53933.938     6.515E-22
  53934.007     6.593E-22
  53934.077     6.669E-22
  53934.147     6.729E-22
  53934.216     6.791E-22
  53934.286     6.870E-22
  53934.356     6.930E-22
  53934.425     6.970E-22
  53934.495     6.996E-22
  53934.565     7.013E-22
  53934.634     7.050E-22
  53934.704     7.084E-22
  53934.774     7.098E-22
  53934.843     7.087E-22
  53934.913     7.072E-22
  53934.983     7.056E-22
  53935.052     7.012E-22
  53935.122     6.931E-22
  53935.192     6.825E-22
  53935.261     6.708E-22
  53935.331     6.604E-22
  53935.401     6.519E-22
  53935.470     6.485E-22
  53935.540     6.503E-22
  53935.609     6.536E-22
  53935.677     6.589E-22
  53935.746     6.636E-22
  53935.815     6.653E-22
  53935.883     6.652E-22
  53935.952     6.645E-22
  53936.021     6.641E-22
  53936.088     6.592E-22
  53936.157     6.645E-22
  53936.226     6.711E-22
  53936.294     6.745E-22
  53936.363     6.781E-22
  53936.432     6.815E-22
  53936.500     6.848E-22
  53936.569     6.895E-22
  53936.637     6.951E-22
  53936.706     6.960E-22
  53936.775     7.019E-22
  53936.843     7.063E-22
  53936.912     7.152E-22
  53936.980     7.225E-22
  53937.049     7.324E-22
  53937.117     7.419E-22
  53937.186     7.349E-22
  53937.254     7.394E-22
  53937.322     7.463E-22
  53937.391     7.471E-22
  53937.460     7.515E-22
  53937.528     7.631E-22
  53937.598     7.742E-22
  53937.668     7.842E-22
  53937.737     7.942E-22
  53937.807     7.940E-22
  53937.876     7.888E-22
  53937.946     7.847E-22
  53938.016     7.886E-22
  53938.085     7.863E-22
  53938.155     7.933E-22
  53938.224     8.098E-22
  53938.294     8.388E-22
  53938.364     8.538E-22
  53938.433     8.756E-22
  53938.503     8.835E-22
  53938.573     8.751E-22
  53938.642     8.841E-22
  53938.712     9.020E-22
  53938.781     9.271E-22
  53938.851     9.256E-22
  53938.921     9.240E-22
  53938.990     9.311E-22
  53939.060     9.407E-22
  53939.129     9.586E-22
  53939.199     9.715E-22
  53939.269     9.724E-22
  53939.338     1.003E-21
  53939.408     1.010E-21
  53939.478     1.019E-21
  53939.547     1.029E-21
  53939.617     1.041E-21
  53939.686     1.055E-21
  53939.756     1.074E-21
  53939.826     1.090E-21
  53939.895     1.094E-21
  53939.965     1.103E-21
  53940.034     1.116E-21
  53940.104     1.132E-21
  53940.174     1.146E-21
  53940.243     1.164E-21
  53940.313     1.189E-21
  53940.383     1.198E-21
  53940.452     1.223E-21
  53940.522     1.242E-21
  53940.591     1.258E-21
  53940.661     1.288E-21
  53940.731     1.313E-21
  53940.800     1.339E-21
  53940.870     1.362E-21
  53940.939     1.382E-21
  53941.009     1.393E-21
  53941.079     1.419E-21
  53941.148     1.425E-21
  53941.218     1.445E-21
  53941.288     1.462E-21
  53941.357     1.486E-21
  53941.427     1.520E-21
  53941.496     1.554E-21
  53941.566     1.605E-21
  53941.636     1.643E-21
  53941.705     1.661E-21
  53941.775     1.678E-21
  53941.845     1.711E-21
  53941.914     1.759E-21
  53941.984     1.771E-21
  53942.053     1.773E-21
  53942.123     1.845E-21
  53942.193     1.898E-21
  53942.262     1.952E-21
  53942.332     2.018E-21
  53942.401     2.045E-21
  53942.471     2.079E-21
  53942.541     2.143E-21
  53942.610     2.220E-21
  53942.680     2.249E-21
  53942.750     2.280E-21
  53942.819     2.331E-21
  53942.889     2.406E-21
  53942.958     2.476E-21
  53943.028     2.633E-21
  53943.098     2.687E-21
  53943.167     2.724E-21
  53943.237     2.849E-21
  53943.307     2.948E-21
  53943.376     3.066E-21
  53943.446     3.174E-21
  53943.515     3.328E-21
  53943.585     3.445E-21
  53943.655     3.528E-21
  53943.724     3.684E-21
  53943.794     3.826E-21
  53943.864     4.023E-21
  53943.933     4.242E-21
  53944.003     4.525E-21
  53944.072     4.613E-21
  53944.142     4.731E-21
  53944.212     4.982E-21
  53944.281     5.103E-21
  53944.351     5.260E-21
  53944.420     5.369E-21
  53944.490     5.479E-21
  53944.560     5.616E-21
  53944.629     5.708E-21
  53944.699     5.839E-21
  53944.769     5.968E-21
  53944.838     6.118E-21
  53944.977     6.693E-21
  53945.047     6.933E-21
  53945.119     7.331E-21
  53945.193     7.764E-21
  53945.316     8.521E-21
  53945.389     9.014E-21
  53945.465     9.504E-21
  53945.542     1.006E-20
  53945.623     1.069E-20
  53945.724     1.150E-20
  53945.803     1.221E-20
  53945.885     1.295E-20
  53945.969     1.379E-20
  53946.053     1.485E-20
  53946.137     1.616E-20
  53946.222     1.759E-20
  53946.305     1.908E-20
  53946.389     2.069E-20
  53946.474     2.233E-20
  53946.558     2.385E-20
  53946.642     2.532E-20
  53946.726     2.691E-20
  53946.809     2.883E-20
  53946.893     3.123E-20
  53946.976     3.401E-20
  53947.061     3.668E-20
  53947.146     3.860E-20
  53947.229     3.956E-20
  53947.313     4.000E-20
  53947.397     4.047E-20
  53947.482     4.127E-20
  53947.566     4.231E-20
  53947.650     4.329E-20
  53947.734     4.378E-20
  53947.818     4.349E-20
  53947.903     4.271E-20
  53947.987     4.174E-20
  53948.071     4.052E-20
  53948.155     3.900E-20
  53948.240     3.748E-20
  53948.323     3.615E-20
  53948.408     3.478E-20
  53948.492     3.305E-20
  53948.576     3.111E-20
  53948.661     2.936E-20
  53948.744     2.780E-20
  53948.831     2.622E-20
  53948.915     2.478E-20
  53948.999     2.369E-20
  53949.082     2.282E-20
  53949.168     2.196E-20
  53949.252     2.105E-20
  53949.336     2.003E-20
  53949.420     1.883E-20
  53949.505     1.759E-20
  53949.589     1.652E-20
  53949.673     1.564E-20
  53949.758     1.491E-20
  53949.842     1.432E-20
  53949.926     1.398E-20
  53950.010     1.394E-20
  53950.094     1.393E-20
  53950.179     1.360E-20
  53950.263     1.301E-20
  53950.347     1.250E-20
  53950.431     1.227E-20
  53950.515     1.232E-20
  53950.600     1.259E-20
  53950.684     1.291E-20
  53950.768     1.317E-20
  53950.852     1.341E-20
  53950.936     1.369E-20
  53951.021     1.408E-20
  53951.104     1.451E-20
  53951.189     1.484E-20
  53951.273     1.510E-20
  53951.358     1.554E-20
  53951.442     1.623E-20
  53951.525     1.705E-20
  53951.610     1.790E-20
  53951.694     1.889E-20
  53951.778     2.015E-20
  53951.862     2.165E-20
  53951.946     2.344E-20
  53952.031     2.569E-20
  53952.113     2.835E-20
  53952.198     3.113E-20
  53952.281     3.388E-20
  53952.365     3.672E-20
  53952.450     3.989E-20
  53952.534     4.348E-20
  53952.618     4.704E-20
  53952.702     5.000E-20
  53952.787     5.238E-20
  53952.870     5.483E-20
  53952.955     5.783E-20
  53953.039     6.106E-20
  53953.123     6.367E-20
  53953.207     6.515E-20
  53953.291     6.565E-20
  53953.376     6.539E-20
  53953.460     6.447E-20
  53953.544     6.287E-20
  53953.628     6.056E-20
  53953.713     5.777E-20
  53953.797     5.522E-20
  53953.882     5.311E-20
  53953.966     5.079E-20
  53954.050     4.770E-20
  53954.134     4.406E-20
  53954.219     4.051E-20
  53954.303     3.736E-20
  53954.387     3.462E-20
  53954.472     3.233E-20
  53954.557     3.031E-20
  53954.641     2.818E-20
  53954.726     2.594E-20
  53954.810     2.397E-20
  53954.895     2.242E-20
  53954.979     2.103E-20
  53955.063     1.961E-20
  53955.148     1.820E-20
  53955.232     1.686E-20
  53955.316     1.555E-20
  53955.401     1.436E-20
  53955.485     1.343E-20
  53955.569     1.277E-20
  53955.651     1.209E-20
  53955.732     1.143E-20
  53955.827     1.064E-20
  53955.907     1.013E-20
  53955.985     9.642E-21
  53956.062     9.168E-21
  53956.176     8.436E-21
  53956.253     8.013E-21
  53956.327     7.585E-21
  53956.399     7.152E-21
  53956.470     6.885E-21
  53956.536     6.544E-21
  53956.606     6.355E-21
  53956.675     6.180E-21
  53956.745     5.983E-21
  53956.815     5.833E-21
  53956.884     5.570E-21
  53956.954     5.331E-21
  53957.024     5.114E-21
  53957.093     4.941E-21
  53957.163     4.857E-21
  53957.233     4.745E-21
  53957.302     4.594E-21
  53957.372     4.396E-21
  53957.442     4.339E-21
  53957.511     4.160E-21
  53957.581     4.041E-21
  53957.650     3.935E-21
  53957.720     3.797E-21
  53957.790     3.706E-21
  53957.859     3.597E-21
  53957.929     3.500E-21
  53957.999     3.425E-21
  53958.068     3.353E-21
  53958.138     3.286E-21
  53958.208     3.228E-21
  53958.277     3.156E-21
  53958.347     3.076E-21
  53958.416     3.026E-21
  53958.486     2.960E-21
  53958.556     2.858E-21
  53958.625     2.770E-21
  53958.695     2.739E-21
  53958.765     2.691E-21
  53958.834     2.637E-21
  53958.904     2.576E-21
  53958.974     2.499E-21
  53959.043     2.399E-21
  53959.113     2.375E-21
  53959.183     2.330E-21
  53959.252     2.336E-21
  53959.322     2.300E-21
  53959.391     2.264E-21
  53959.461     2.224E-21
  53959.531     2.207E-21
  53959.600     2.147E-21
  53959.670     2.108E-21
  53959.740     2.049E-21
  53959.809     1.997E-21
  53959.879     1.951E-21
  53959.949     1.937E-21
  53960.018     1.903E-21
  53960.088     1.887E-21
  53960.158     1.861E-21
  53960.227     1.819E-21
  53960.297     1.792E-21
  53960.366     1.774E-21
  53960.436     1.772E-21
  53960.506     1.760E-21
  53960.575     1.724E-21
  53960.645     1.704E-21
  53960.715     1.687E-21
  53960.784     1.661E-21
  53960.854     1.638E-21
  53960.924     1.611E-21
  53960.993     1.564E-21
  53961.063     1.531E-21
  53961.133     1.510E-21
  53961.202     1.497E-21
  53961.272     1.494E-21
  53961.341     1.468E-21
  53961.411     1.438E-21
  53961.481     1.417E-21
  53961.550     1.405E-21
  53961.620     1.391E-21
  53961.690     1.350E-21
  53961.759     1.326E-21
  53961.829     1.309E-21
  53961.899     1.292E-21
  53961.968     1.283E-21
  53962.038     1.278E-21
  53962.108     1.277E-21
  53962.177     1.265E-21
  53962.247     1.242E-21
  53962.317     1.224E-21
  53962.386     1.206E-21
  53962.456     1.199E-21
  53962.525     1.190E-21
  53962.595     1.179E-21
  53962.665     1.172E-21
  53962.734     1.184E-21
  53962.804     1.172E-21
  53962.874     1.160E-21
  53962.943     1.139E-21
  53963.013     1.129E-21
  53963.083     1.117E-21
  53963.152     1.110E-21
  53963.222     1.124E-21
  53963.292     1.134E-21
  53963.361     1.117E-21
  53963.431     1.094E-21
  53963.501     1.082E-21
  53963.570     1.075E-21
  53963.640     1.075E-21
  53963.709     1.078E-21
  53963.779     1.083E-21
  53963.849     1.093E-21
  53963.918     1.096E-21
  53963.988     1.091E-21
  53964.058     1.074E-21
  53964.127     1.058E-21
  53964.197     1.052E-21
  53964.267     1.036E-21
  53964.336     1.028E-21
  53964.406     1.012E-21
  53964.476     1.002E-21
  53964.545     9.997E-22
  53964.615     9.750E-22
  53964.685     9.687E-22
  53964.754     9.509E-22
  53964.824     9.334E-22
  53964.893     9.230E-22
  53964.963     9.118E-22
  53965.033     9.000E-22
  53965.102     8.917E-22
  53965.172     8.856E-22
  53965.242     8.886E-22
  53965.311     8.962E-22
  53965.381     8.906E-22
  53965.451     8.925E-22
  53965.520     8.889E-22
  53965.590     8.717E-22
  53965.660     8.687E-22
  53965.729     8.591E-22
  53965.799     8.727E-22
  53965.869     9.025E-22
  53965.938     9.283E-22
  53966.008     9.383E-22
  53966.078     9.412E-22
  53966.147     9.564E-22
  53966.217     9.574E-22
  53966.286     9.535E-22
  53966.356     9.550E-22
  53966.426     9.401E-22
  53966.495     9.507E-22
  53966.565     9.478E-22
  53966.635     9.622E-22
  53966.704     9.710E-22
  53966.774     9.779E-22
  53966.844     1.006E-21
  53966.913     1.003E-21
  53966.983     1.008E-21
  53967.053     1.007E-21
  53967.122     9.968E-22
  53967.192     9.695E-22
  53967.261     9.437E-22
  53967.330     9.166E-22
  53967.400     9.025E-22
  53967.470     8.901E-22
  53967.539     8.761E-22
  53967.608     8.590E-22
  53967.678     8.369E-22
  53967.747     8.264E-22
  53967.817     8.255E-22
  53967.887     8.281E-22
  53967.956     8.282E-22
  53968.025     8.170E-22
  53968.094     8.213E-22
  53968.164     8.178E-22
  53968.234     8.289E-22
  53968.303     8.292E-22
  53968.372     8.276E-22
  53968.442     8.339E-22
  53968.511     8.428E-22
  53968.581     8.481E-22
  53968.651     8.600E-22
  53968.720     8.710E-22
  53968.790     8.849E-22
  53968.859     8.955E-22
  53968.928     8.997E-22
  53968.998     9.051E-22
  53969.068     8.999E-22
  53969.137     8.930E-22
  53969.207     8.851E-22
  53969.276     8.841E-22
  53969.346     8.771E-22
  53969.415     8.708E-22
  53969.485     8.677E-22
  53969.554     8.590E-22
  53969.624     8.621E-22
  53969.694     8.634E-22
  53969.763     8.650E-22
  53969.832     8.669E-22
  53969.902     8.652E-22
  53969.972     8.568E-22
  53970.041     8.481E-22
  53970.110     8.395E-22
  53970.180     8.251E-22
  53970.250     8.091E-22
  53970.319     8.049E-22
  53970.389     7.978E-22
  53970.459     7.883E-22
  53970.528     7.786E-22
  53970.597     7.697E-22
  53970.667     7.612E-22
  53970.737     7.627E-22
  53970.806     7.609E-22
  53970.876     7.589E-22
  53970.945     7.531E-22
  53971.015     7.523E-22
  53971.084     7.495E-22
  53971.153     7.446E-22
  53971.222     7.440E-22
  53971.291     7.469E-22
  53971.360     7.479E-22
  53971.429     7.423E-22
  53971.498     7.381E-22
  53971.567     7.370E-22
  53971.636     7.344E-22
  53971.705     7.312E-22
  53971.774     7.311E-22
  53971.843     7.358E-22
  53971.912     7.482E-22
  53971.981     7.683E-22
  53972.050     7.906E-22
  53972.120     7.975E-22
  53972.189     7.900E-22
  53972.257     7.882E-22
  53972.327     7.893E-22
  53972.396     7.883E-22
  53972.465     7.979E-22
  53972.534     8.250E-22
  53972.604     8.454E-22
  53972.673     8.671E-22
  53972.743     8.830E-22
  53972.813     9.117E-22
  53972.882     9.224E-22
  53972.952     9.240E-22
  53973.022     9.398E-22
  53973.091     9.849E-22
  53973.161     1.022E-21
  53973.231     1.068E-21
  53973.300     1.100E-21
  53973.370     1.144E-21
  53973.440     1.210E-21
  53973.509     1.260E-21
  53973.579     1.349E-21
  53973.649     1.473E-21
  53973.718     1.643E-21
  53973.788     1.779E-21
  53973.858     1.931E-21
  53973.927     2.088E-21
  53973.997     2.243E-21
  53974.067     2.333E-21
  53974.136     2.366E-21
  53974.206     2.405E-21
  53974.276     2.413E-21
  53974.345     2.370E-21
  53974.415     2.333E-21
  53974.485     2.284E-21
  53974.554     2.248E-21
  53974.624     2.201E-21
  53974.694     2.125E-21
  53974.763     2.076E-21
  53974.833     2.074E-21
  53974.903     2.036E-21
  53974.972     2.009E-21
  53975.042     2.002E-21
  53975.112     1.991E-21
  53975.181     1.981E-21
  53975.251     1.976E-21
  53975.321     1.978E-21
  53975.390     1.977E-21
  53975.460     1.951E-21
  53975.530     1.919E-21
  53975.599     1.898E-21
  53975.669     1.870E-21
  53975.739     1.873E-21
  53975.808     1.868E-21
  53975.878     1.835E-21
  53975.947     1.814E-21
  53976.017     1.788E-21
  53976.087     1.765E-21
  53976.156     1.741E-21
  53976.226     1.702E-21
  53976.296     1.661E-21
  53976.365     1.630E-21
  53976.435     1.621E-21
  53976.505     1.606E-21
  53976.574     1.612E-21
  53976.644     1.580E-21
  53976.714     1.547E-21
  53976.783     1.523E-21
  53976.853     1.501E-21
  53976.923     1.480E-21
  53976.992     1.438E-21
  53977.062     1.369E-21
  53977.132     1.314E-21
  53977.201     1.246E-21
  53977.271     1.197E-21
  53977.341     1.154E-21
  53977.410     1.098E-21
  53977.480     1.074E-21
  53977.550     1.054E-21
  53977.619     1.037E-21
  53977.689     1.015E-21
  53977.759     9.921E-22
  53977.828     9.605E-22
  53977.898     9.649E-22
  53977.968     9.793E-22
  53978.037     9.790E-22
  53978.107     9.969E-22
  53978.177     9.927E-22
  53978.246     9.967E-22
  53978.316     9.969E-22
  53978.386     1.004E-21
  53978.455     9.864E-22
  53978.525     1.008E-21
  53978.595     9.861E-22
  53978.664     9.829E-22
  53978.734     9.824E-22
  53978.804     9.646E-22
  53978.873     9.441E-22
  53978.943     9.374E-22
  53979.013     9.315E-22
  53979.082     9.024E-22
  53979.152     9.050E-22
  53979.222     9.244E-22
  53979.291     9.455E-22
  53979.361     9.266E-22
  53979.431     9.049E-22
  53979.501     9.106E-22
  53979.570     9.197E-22
  53979.640     9.300E-22
  53979.710     9.255E-22
  53979.779     9.317E-22
  53979.849     9.503E-22
  53979.919     9.485E-22
  53979.988     9.279E-22
  53980.058     8.966E-22
  53980.128     8.732E-22
  53980.197     8.549E-22
  53980.267     8.660E-22
  53980.337     8.912E-22
  53980.406     9.241E-22
  53980.476     9.522E-22
  53980.546     9.485E-22
  53980.615     9.215E-22
  53980.685     9.185E-22
  53980.755     9.251E-22
  53980.824     9.271E-22
  53980.894     9.210E-22
  53980.964     9.192E-22
  53981.033     9.129E-22
  53981.103     9.252E-22
  53981.173     9.419E-22
  53981.242     9.604E-22
  53981.312     9.943E-22
  53981.382     1.018E-21
  53981.451     1.040E-21
  53981.521     1.064E-21
  53981.591     1.086E-21
  53981.660     1.099E-21
  53981.730     1.122E-21
  53981.800     1.145E-21
  53981.869     1.161E-21
  53981.939     1.211E-21
  53982.009     1.262E-21
  53982.078     1.307E-21
  53982.148     1.340E-21
  53982.218     1.372E-21
  53982.287     1.422E-21
  53982.357     1.506E-21
  53982.427     1.613E-21
  53982.496     1.707E-21
  53982.566     1.779E-21
  53982.636     1.859E-21
  53982.705     1.912E-21
  53982.775     1.926E-21
  53982.845     1.927E-21
  53982.914     1.908E-21
  53982.984     1.866E-21
  53983.054     1.812E-21
  53983.123     1.735E-21
  53983.193     1.657E-21
  53983.263     1.587E-21
  53983.332     1.547E-21
  53983.402     1.549E-21
  53983.472     1.532E-21
  53983.541     1.541E-21
  53983.611     1.551E-21
  53983.681     1.587E-21
  53983.750     1.634E-21
  53983.820     1.687E-21
  53983.890     1.731E-21
  53983.960     1.790E-21
  53984.029     1.872E-21
  53984.099     1.895E-21
  53984.169     1.953E-21
  53984.238     2.005E-21
  53984.308     2.035E-21
  53984.378     2.030E-21
  53984.447     2.053E-21
  53984.517     2.061E-21
  53984.587     2.071E-21
  53984.656     2.095E-21
  53984.726     2.105E-21
  53984.796     2.134E-21
  53984.865     2.137E-21
  53984.935     2.124E-21
  53985.005     2.106E-21
  53985.074     2.115E-21
  53985.144     2.119E-21
  53985.214     2.098E-21
  53985.283     2.058E-21
  53985.353     1.994E-21
  53985.423     1.938E-21
  53985.492     1.897E-21
  53985.562     1.852E-21
  53985.632     1.822E-21
  53985.701     1.809E-21
  53985.771     1.803E-21
  53985.841     1.770E-21
  53985.910     1.742E-21
  53985.980     1.707E-21
  53986.050     1.681E-21
  53986.119     1.695E-21
  53986.189     1.696E-21
  53986.259     1.674E-21
  53986.329     1.652E-21
  53986.398     1.654E-21
  53986.468     1.662E-21
  53986.538     1.662E-21
  53986.607     1.661E-21
  53986.677     1.669E-21
  53986.747     1.661E-21
  53986.816     1.669E-21
  53986.886     1.708E-21
  53986.956     1.706E-21
  53987.025     1.699E-21
  53987.095     1.718E-21
  53987.165     1.754E-21
  53987.234     1.760E-21
  53987.304     1.798E-21
  53987.374     1.841E-21
  53987.443     1.867E-21
  53987.513     1.892E-21
  53987.583     1.931E-21
  53987.652     1.942E-21
  53987.722     1.963E-21
  53987.792     1.970E-21
  53987.861     1.954E-21
  53987.931     1.992E-21
  53988.001     2.021E-21
  53988.070     2.057E-21
  53988.140     2.087E-21
  53988.210     2.121E-21
  53988.280     2.155E-21
  53988.349     2.185E-21
  53988.419     2.220E-21
  53988.489     2.246E-21
  53988.558     2.269E-21
  53988.628     2.322E-21
  53988.698     2.373E-21
  53988.767     2.452E-21
  53988.837     2.536E-21
  53988.907     2.606E-21
  53988.976     2.671E-21
  53989.046     2.669E-21
  53989.116     2.719E-21
  53989.185     2.762E-21
  53989.255     2.801E-21
  53989.325     2.849E-21
  53989.394     2.942E-21
  53989.464     3.032E-21
  53989.534     3.120E-21
  53989.603     3.198E-21
  53989.673     3.277E-21
  53989.743     3.324E-21
  53989.813     3.376E-21
  53989.882     3.454E-21
  53989.952     3.530E-21
  53990.022     3.635E-21
  53990.091     3.764E-21
  53990.161     3.902E-21
  53990.231     4.056E-21
  53990.300     4.235E-21
  53990.370     4.422E-21
  53990.440     4.586E-21
  53990.509     4.692E-21
  53990.579     4.823E-21
  53990.649     5.012E-21
  53990.718     5.222E-21
  53990.788     5.424E-21
  53990.858     5.635E-21
  53990.927     5.805E-21
  53990.997     6.076E-21
  53991.067     6.488E-21
  53991.205     7.584E-21
  53991.275     8.172E-21
  53991.347     8.721E-21
  53991.420     9.280E-21
  53991.494     9.822E-21
  53991.618     1.052E-20
  53991.693     1.096E-20
  53991.769     1.123E-20
  53991.845     1.143E-20
  53991.958     1.157E-20
  53992.034     1.172E-20
  53992.113     1.200E-20
  53992.192     1.217E-20
  53992.274     1.246E-20
  53992.372     1.289E-20
  53992.453     1.330E-20
  53992.535     1.372E-20
  53992.619     1.406E-20
  53992.705     1.442E-20
  53992.789     1.494E-20
  53992.874     1.569E-20
  53992.958     1.653E-20
  53993.043     1.734E-20
  53993.127     1.806E-20
  53993.212     1.873E-20
  53993.296     1.961E-20
  53993.381     2.072E-20
  53993.465     2.186E-20
  53993.550     2.297E-20
  53993.634     2.429E-20
  53993.718     2.596E-20
  53993.802     2.794E-20
  53993.887     3.005E-20
  53993.971     3.210E-20
  53994.055     3.416E-20
  53994.140     3.642E-20
  53994.224     3.898E-20
  53994.309     4.171E-20
  53994.393     4.420E-20
  53994.477     4.626E-20
  53994.562     4.843E-20
  53994.647     5.143E-20
  53994.731     5.536E-20
  53994.816     5.971E-20
  53994.900     6.348E-20
  53994.985     6.567E-20
  53995.069     6.622E-20
  53995.154     6.591E-20
  53995.239     6.551E-20
  53995.323     6.524E-20
  53995.408     6.486E-20
  53995.492     6.365E-20
  53995.577     6.112E-20
  53995.662     5.754E-20
  53995.746     5.362E-20
  53995.831     5.026E-20
  53995.916     4.794E-20
  53996.000     4.633E-20
  53996.085     4.479E-20
  53996.169     4.310E-20
  53996.254     4.132E-20
  53996.339     3.931E-20
  53996.423     3.688E-20
  53996.508     3.434E-20
  53996.592     3.218E-20
  53996.678     3.052E-20
  53996.763     2.912E-20
  53996.847     2.781E-20
  53996.932     2.663E-20
  53997.016     2.565E-20
  53997.102     2.476E-20
  53997.186     2.390E-20
  53997.271     2.311E-20
  53997.355     2.253E-20
  53997.440     2.215E-20
  53997.525     2.180E-20
  53997.609     2.141E-20
  53997.694     2.111E-20
  53997.778     2.109E-20
  53997.863     2.137E-20
  53997.948     2.189E-20
  53998.032     2.259E-20
  53998.117     2.332E-20
  53998.201     2.408E-20
  53998.285     2.504E-20
  53998.370     2.628E-20
  53998.455     2.786E-20
  53998.539     2.990E-20
  53998.623     3.226E-20
  53998.707     3.447E-20
  53998.793     3.621E-20
  53998.876     3.779E-20
  53998.961     3.986E-20
  53999.045     4.267E-20
  53999.130     4.590E-20
  53999.214     4.935E-20
  53999.299     5.344E-20
  53999.383     5.862E-20
  53999.468     6.434E-20
  53999.552     6.945E-20
  53999.637     7.350E-20
  53999.722     7.707E-20
  53999.806     8.097E-20
  53999.891     8.513E-20
  53999.976     8.822E-20
  54000.060     8.916E-20
  54000.145     8.817E-20
  54000.229     8.619E-20
  54000.314     8.373E-20
  54000.399     8.090E-20
  54000.483     7.799E-20
  54000.568     7.544E-20
  54000.652     7.291E-20
  54000.737     6.919E-20
  54000.822     6.371E-20
  54000.907     5.762E-20
  54000.991     5.243E-20
  54001.076     4.841E-20
  54001.161     4.482E-20
  54001.245     4.121E-20
  54001.330     3.766E-20
  54001.414     3.446E-20
  54001.499     3.162E-20
  54001.585     2.896E-20
  54001.669     2.639E-20
  54001.755     2.403E-20
  54001.839     2.206E-20
  54001.924     2.057E-20
  54002.009     1.944E-20
  54002.093     1.837E-20
  54002.178     1.718E-20
  54002.263     1.599E-20
  54002.347     1.496E-20
  54002.432     1.409E-20
  54002.601     1.271E-20
  54002.688     1.217E-20
  54002.772     1.172E-20
  54002.852     1.146E-20
  54002.931     1.121E-20
  54003.038     1.087E-20
  54003.117     1.050E-20
  54003.193     1.014E-20
  54003.267     9.832E-21
  54003.338     9.565E-21
  54003.470     9.172E-21
  54003.542     8.969E-21
  54003.611     8.616E-21
  54003.681     8.151E-21
  54003.751     7.780E-21
  54003.821     7.450E-21
  54003.890     7.291E-21
  54003.960     7.164E-21
  54004.030     6.984E-21
  54004.099     6.758E-21
  54004.169     6.648E-21
  54004.239     6.703E-21
  54004.308     6.512E-21
  54004.378     6.343E-21
  54004.448     6.258E-21
  54004.518     6.251E-21
  54004.587     6.251E-21
  54004.657     6.204E-21
  54004.727     6.117E-21
  54004.796     6.024E-21
  54004.866     5.868E-21
  54004.936     5.715E-21
  54005.005     5.547E-21
  54005.075     5.413E-21
  54005.145     5.190E-21
  54005.215     4.989E-21
  54005.284     4.832E-21
  54005.354     4.587E-21
  54005.424     4.405E-21
  54005.493     4.243E-21
  54005.563     4.073E-21
  54005.633     3.941E-21
  54005.703     3.796E-21
  54005.772     3.681E-21
  54005.842     3.606E-21
  54005.912     3.573E-21
  54005.981     3.476E-21
  54006.051     3.396E-21
  54006.121     3.330E-21
  54006.190     3.263E-21
  54006.260     3.208E-21
  54006.330     3.165E-21
  54006.400     3.130E-21
  54006.469     3.087E-21
  54006.539     2.975E-21
  54006.609     2.929E-21
  54006.678     2.869E-21
  54006.748     2.826E-21
  54006.818     2.774E-21
  54006.887     2.698E-21
  54006.957     2.631E-21
  54007.027     2.528E-21
  54007.097     2.498E-21
  54007.166     2.481E-21
  54007.236     2.456E-21
  54007.306     2.454E-21
  54007.375     2.413E-21
  54007.445     2.358E-21
  54007.515     2.343E-21
  54007.585     2.311E-21
  54007.654     2.288E-21
  54007.724     2.270E-21
  54007.794     2.260E-21
  54007.863     2.261E-21
  54007.933     2.260E-21
  54008.003     2.245E-21
  54008.072     2.237E-21
  54008.142     2.242E-21
  54008.212     2.228E-21
  54008.282     2.213E-21
  54008.351     2.156E-21
  54008.421     2.103E-21
  54008.491     2.044E-21
  54008.560     2.001E-21
  54008.630     1.985E-21
  54008.700     1.975E-21
  54008.770     1.975E-21
  54008.839     1.951E-21
  54008.909     1.941E-21
  54008.979     1.931E-21
  54009.048     1.928E-21
  54009.118     1.910E-21
  54009.188     1.864E-21
  54009.258     1.863E-21
  54009.327     1.854E-21
  54009.397     1.842E-21
  54009.467     1.835E-21
  54009.536     1.817E-21
  54009.606     1.808E-21
  54009.676     1.806E-21
  54009.745     1.789E-21
  54009.815     1.766E-21
  54009.885     1.723E-21
  54009.955     1.681E-21
  54010.024     1.672E-21
  54010.094     1.645E-21
  54010.164     1.621E-21
  54010.233     1.607E-21
  54010.303     1.592E-21
  54010.373     1.592E-21
  54010.443     1.556E-21
  54010.512     1.546E-21
  54010.582     1.524E-21
  54010.652     1.499E-21
  54010.721     1.482E-21
  54010.791     1.474E-21
  54010.861     1.486E-21
  54010.931     1.505E-21
  54011.000     1.508E-21
  54011.070     1.509E-21
  54011.140     1.518E-21
  54011.209     1.509E-21
  54011.279     1.499E-21
  54011.349     1.488E-21
  54011.418     1.488E-21
  54011.488     1.493E-21
  54011.558     1.490E-21
  54011.628     1.493E-21
  54011.697     1.509E-21
  54011.767     1.505E-21
  54011.837     1.499E-21
  54011.906     1.504E-21
  54011.976     1.491E-21
  54012.046     1.489E-21
  54012.116     1.485E-21
  54012.185     1.473E-21
  54012.255     1.453E-21
  54012.325     1.426E-21
  54012.394     1.410E-21
  54012.464     1.397E-21
  54012.534     1.373E-21
  54012.604     1.368E-21
  54012.673     1.327E-21
  54012.743     1.319E-21
  54012.813     1.329E-21
  54012.882     1.311E-21
  54012.952     1.281E-21
  54013.022     1.279E-21
  54013.092     1.252E-21
  54013.161     1.246E-21
  54013.231     1.258E-21
  54013.301     1.246E-21
  54013.370     1.222E-21
  54013.440     1.191E-21
  54013.510     1.178E-21
  54013.580     1.189E-21
  54013.649     1.188E-21
  54013.719     1.172E-21
  54013.789     1.159E-21
  54013.858     1.139E-21
  54013.928     1.142E-21
  54013.998     1.136E-21
  54014.068     1.133E-21
  54014.137     1.140E-21
  54014.207     1.159E-21
  54014.277     1.171E-21
  54014.346     1.176E-21
  54014.416     1.171E-21
  54014.486     1.156E-21
  54014.556     1.130E-21
  54014.625     1.111E-21
  54014.695     1.097E-21
  54014.765     1.094E-21
  54014.834     1.094E-21
  54014.904     1.090E-21
  54014.974     1.099E-21
  54015.044     1.115E-21
  54015.113     1.106E-21
  54015.183     1.109E-21
  54015.253     1.087E-21
  54015.322     1.077E-21
  54015.392     1.069E-21
  54015.462     1.079E-21
  54015.532     1.069E-21
  54015.601     1.062E-21
  54015.671     1.058E-21
  54015.741     1.039E-21
  54015.810     1.022E-21
  54015.880     1.028E-21
  54015.950     1.025E-21
  54016.020     1.004E-21
  54016.089     1.000E-21
  54016.159     1.012E-21
  54016.229     1.001E-21
  54016.298     1.005E-21
  54016.368     9.925E-22
  54016.438     9.925E-22
  54016.508     1.005E-21
  54016.577     1.034E-21
  54016.647     1.036E-21
  54016.717     1.007E-21
  54016.787     9.868E-22
  54016.856     9.899E-22
  54016.926     1.013E-21
  54016.996     1.019E-21
  54017.065     9.971E-22
  54017.135     9.468E-22
  54017.205     9.386E-22
  54017.275     9.581E-22
  54017.345     9.860E-22
  54017.415     9.783E-22
  54017.485     9.740E-22
  54017.554     9.774E-22
  54017.624     9.830E-22
  54017.694     1.010E-21
  54017.764     9.924E-22
  54017.834     9.838E-22
  54017.904     9.841E-22
  54017.974     9.515E-22
  54018.043     9.309E-22
  54018.113     9.303E-22
  54018.183     9.359E-22
  54018.253     9.453E-22
  54018.323     9.628E-22
  54018.393     9.732E-22
  54018.463     9.713E-22
  54018.532     9.678E-22
  54018.602     9.875E-22
  54018.672     9.863E-22
  54018.742     9.690E-22
  54018.812     9.534E-22
  54018.882     9.699E-22
  54018.952     9.692E-22
  54019.022     9.663E-22
  54019.091     9.730E-22
  54019.161     9.792E-22
  54019.231     9.921E-22
  54019.301     1.003E-21
  54019.371     1.010E-21
  54019.441     1.010E-21
  54019.511     1.008E-21
  54019.581     9.963E-22
  54019.650     1.003E-21
  54019.720     1.019E-21
  54019.790     1.035E-21
  54019.860     1.054E-21
  54019.930     1.073E-21
  54020.000     1.066E-21
  54020.070     1.069E-21
  54020.139     1.058E-21
  54020.209     1.072E-21
  54020.279     1.083E-21
  54020.349     1.096E-21
  54020.419     1.103E-21
  54020.489     1.121E-21
  54020.559     1.126E-21
  54020.628     1.141E-21
  54020.698     1.156E-21
  54020.768     1.149E-21
  54020.838     1.153E-21
  54020.908     1.164E-21
  54020.978     1.177E-21
  54021.048     1.206E-21
  54021.117     1.212E-21
  54021.187     1.224E-21
  54021.257     1.235E-21
  54021.327     1.237E-21
  54021.397     1.237E-21
  54021.467     1.250E-21
  54021.537     1.238E-21
  54021.606     1.231E-21
  54021.676     1.228E-21
  54021.746     1.227E-21
  54021.816     1.251E-21
  54021.886     1.261E-21
  54021.956     1.241E-21
  54022.026     1.245E-21
  54022.096     1.231E-21
  54022.165     1.224E-21
  54022.235     1.225E-21
  54022.305     1.212E-21
  54022.375     1.213E-21
  54022.445     1.216E-21
  54022.515     1.230E-21
  54022.585     1.245E-21
  54022.654     1.234E-21
  54022.724     1.244E-21
  54022.795     1.252E-21
  54022.864     1.259E-21
  54022.934     1.270E-21
  54023.004     1.273E-21
  54023.074     1.265E-21
  54023.143     1.287E-21
  54023.213     1.305E-21
  54023.283     1.311E-21
  54023.353     1.328E-21
  54023.422     1.334E-21
  54023.492     1.360E-21
  54023.562     1.382E-21
  54023.631     1.379E-21
  54023.701     1.388E-21
  54023.771     1.382E-21
  54023.841     1.376E-21
  54023.910     1.379E-21
  54023.980     1.360E-21
  54024.050     1.339E-21
  54024.120     1.340E-21
  54024.189     1.350E-21
  54024.259     1.367E-21
  54024.329     1.366E-21
  54024.398     1.351E-21
  54024.468     1.352E-21
  54024.538     1.356E-21
  54024.608     1.367E-21
  54024.677     1.373E-21
  54024.747     1.369E-21
  54024.817     1.379E-21
  54024.887     1.386E-21
  54024.956     1.395E-21
  54025.026     1.389E-21
  54025.096     1.392E-21
  54025.165     1.395E-21
  54025.235     1.406E-21
  54025.305     1.407E-21
  54025.375     1.402E-21
  54025.444     1.392E-21
  54025.514     1.401E-21
  54025.584     1.400E-21
  54025.654     1.418E-21
  54025.723     1.438E-21
  54025.793     1.445E-21
  54025.863     1.459E-21
  54025.932     1.459E-21
  54026.002     1.449E-21
  54026.072     1.466E-21
  54026.142     1.472E-21
  54026.211     1.475E-21
  54026.281     1.479E-21
  54026.351     1.492E-21
  54026.421     1.495E-21
  54026.490     1.482E-21
  54026.560     1.498E-21
  54026.630     1.543E-21
  54026.700     1.559E-21
  54026.769     1.561E-21
  54026.839     1.572E-21
  54026.909     1.585E-21
  54026.978     1.600E-21
  54027.048     1.613E-21
  54027.118     1.628E-21
  54027.188     1.635E-21
  54027.257     1.642E-21
  54027.327     1.654E-21
  54027.397     1.678E-21
  54027.467     1.699E-21
  54027.536     1.720E-21
  54027.606     1.724E-21
  54027.676     1.757E-21
  54027.745     1.790E-21
  54027.815     1.803E-21
  54027.885     1.821E-21
  54027.955     1.861E-21
  54028.024     1.900E-21
  54028.094     1.902E-21
  54028.164     1.907E-21
  54028.234     1.919E-21
  54028.303     1.936E-21
  54028.373     1.943E-21
  54028.443     1.977E-21
  54028.513     1.991E-21
  54028.582     2.000E-21
  54028.652     2.032E-21
  54028.722     2.053E-21
  54028.791     2.075E-21
  54028.861     2.118E-21
  54028.931     2.162E-21
  54029.001     2.175E-21
  54029.070     2.162E-21
  54029.140     2.172E-21
  54029.210     2.196E-21
  54029.280     2.228E-21
  54029.349     2.269E-21
  54029.419     2.320E-21
  54029.489     2.346E-21
  54029.559     2.383E-21
  54029.628     2.416E-21
  54029.698     2.447E-21
  54029.768     2.475E-21
  54029.837     2.552E-21
  54029.907     2.644E-21
  54029.977     2.721E-21
  54030.047     2.786E-21
  54030.116     2.805E-21
  54030.186     2.828E-21
  54030.256     2.863E-21
  54030.326     2.870E-21
  54030.395     2.925E-21
  54030.465     2.981E-21
  54030.535     3.038E-21
  54030.605     3.030E-21
  54030.674     3.081E-21
  54030.744     3.131E-21
  54030.814     3.182E-21
  54030.883     3.242E-21
  54030.953     3.330E-21
  54031.023     3.390E-21
  54031.093     3.452E-21
  54031.162     3.547E-21
  54031.232     3.619E-21
  54031.302     3.677E-21
  54031.372     3.757E-21
  54031.441     3.871E-21
  54031.511     3.988E-21
  54031.581     4.017E-21
  54031.651     4.146E-21
  54031.720     4.218E-21
  54031.790     4.311E-21
  54031.860     4.457E-21
  54031.930     4.497E-21
  54031.999     4.498E-21
  54032.069     4.595E-21
  54032.139     4.724E-21
  54032.208     4.838E-21
  54032.278     5.032E-21
  54032.348     5.214E-21
  54032.418     5.304E-21
  54032.487     5.424E-21
  54032.557     5.499E-21
  54032.627     5.576E-21
  54032.697     5.656E-21
  54032.766     5.804E-21
  54032.836     5.975E-21
  54032.906     6.141E-21
  54032.976     6.378E-21
  54033.045     6.615E-21
  54033.115     6.952E-21
  54033.187     7.259E-21
  54033.262     7.583E-21
  54033.390     8.051E-21
  54033.463     8.254E-21
  54033.539     8.396E-21
  54033.615     8.743E-21
  54033.731     9.399E-21
  54033.807     9.849E-21
  54033.876     1.042E-20
  54033.965     1.107E-20
  54034.047     1.151E-20
  54034.146     1.167E-20
  54034.229     1.139E-20
  54034.312     1.092E-20
  54034.396     1.075E-20
  54034.552     1.230E-20
  54034.637     1.393E-20
  54034.722     1.586E-20
  54034.807     1.790E-20
  54034.892     1.984E-20
  54034.977     2.166E-20
  54035.050     2.358E-20
  54035.147     2.564E-20
  54035.220     2.770E-20
  54035.305     2.967E-20
  54035.390     3.188E-20
  54035.461     3.483E-20
  54035.560     3.876E-20
  54035.631     4.326E-20
  54035.716     4.765E-20
  54035.801     5.150E-20
  54035.889     5.526E-20
  54035.974     5.989E-20
  54036.060     6.546E-20
  54036.141     7.098E-20
  54036.226     7.580E-20
  54036.315     7.998E-20
  54036.396     8.337E-20
  54036.481     8.585E-20
  54036.566     8.786E-20
  54036.652     8.932E-20
  54036.737     8.977E-20
  54036.822     8.940E-20
  54036.907     8.864E-20
  54036.992     8.775E-20
  54037.077     8.676E-20
  54037.162     8.493E-20
  54037.251     8.178E-20
  54037.332     7.760E-20
  54037.421     7.308E-20
  54037.506     6.888E-20
  54037.591     6.495E-20
  54037.676     6.096E-20
  54037.761     5.715E-20
  54037.846     5.384E-20
  54037.932     5.108E-20
  54038.017     4.879E-20
  54038.099     4.668E-20
  54038.184     4.445E-20
  54038.269     4.217E-20
  54038.354     4.019E-20
  54038.439     3.878E-20
  54038.524     3.791E-20
  54038.623     3.738E-20
  54038.709     3.708E-20
  54038.794     3.693E-20
  54038.879     3.682E-20
  54038.964     3.675E-20
  54039.035     3.694E-20
  54039.120     3.767E-20
  54039.205     3.900E-20
  54039.290     4.075E-20
  54039.378     4.257E-20
  54039.460     4.446E-20
  54039.545     4.677E-20
  54039.633     4.962E-20
  54039.715     5.295E-20
  54039.803     5.686E-20
  54039.888     6.135E-20
  54039.974     6.623E-20
  54040.059     7.150E-20
  54040.140     7.724E-20
  54040.225     8.284E-20
  54040.310     8.743E-20
  54040.395     9.127E-20
  54040.480     9.554E-20
  54040.565     1.009E-19
  54040.651     1.066E-19
  54040.736     1.106E-19
  54040.821     1.122E-19
  54040.906     1.120E-19
  54040.991     1.113E-19
  54041.076     1.099E-19
  54041.161     1.071E-19
  54041.246     1.030E-19
  54041.331     9.847E-20
  54041.416     9.374E-20
  54041.501     8.841E-20
  54041.586     8.278E-20
  54041.672     7.782E-20
  54041.760     7.378E-20
  54041.845     6.982E-20
  54041.930     6.510E-20
  54042.016     5.994E-20
  54042.101     5.502E-20
  54042.186     5.040E-20
  54042.268     4.614E-20
  54042.356     4.248E-20
  54042.452     3.940E-20
  54042.526     3.663E-20
  54042.608     3.399E-20
  54042.707     3.163E-20
  54042.793     2.952E-20
  54042.878     2.747E-20
  54042.963     2.558E-20
  54043.060     2.408E-20
  54043.133     2.288E-20
  54043.230     2.167E-20
  54043.315     2.030E-20
  54043.400     1.894E-20
  54043.486     1.779E-20
  54043.571     1.691E-20
  54043.656     1.623E-20
  54043.741     1.563E-20
  54043.826     1.503E-20
  54043.911     1.438E-20
  54043.996     1.381E-20
  54044.097     1.334E-20
  54044.162     1.283E-20
  54044.258     1.215E-20
  54044.339     1.153E-20
  54044.424     1.084E-20
  54044.544     1.011E-20
  54044.690     9.605E-21
  54044.763     9.388E-21
  54044.832     9.197E-21
  54044.902     8.953E-21
  54044.972     8.651E-21
  54045.042     8.417E-21
  54045.111     8.150E-21
  54045.181     7.830E-21
  54045.251     7.609E-21
  54045.321     7.413E-21
  54045.390     7.170E-21
  54045.460     6.950E-21
  54045.530     6.808E-21
  54045.600     6.641E-21
  54045.669     6.349E-21
  54045.739     6.141E-21
  54045.809     6.059E-21
  54045.879     5.965E-21
  54045.949     5.831E-21
  54046.018     5.709E-21
  54046.088     5.577E-21
  54046.158     5.437E-21
  54046.228     5.327E-21
  54046.297     5.198E-21
  54046.367     5.107E-21
  54046.437     5.013E-21
  54046.507     4.917E-21
  54046.576     4.821E-21
  54046.646     4.738E-21
  54046.716     4.635E-21
  54046.786     4.534E-21
  54046.855     4.376E-21
  54046.925     4.292E-21
  54046.995     4.261E-21
  54047.065     4.237E-21
  54047.134     4.242E-21
  54047.204     4.272E-21
  54047.274     4.259E-21
  54047.344     4.100E-21
  54047.413     4.016E-21
  54047.483     3.906E-21
  54047.553     3.789E-21
  54047.623     3.731E-21
  54047.692     3.710E-21
  54047.762     3.713E-21
  54047.832     3.660E-21
  54047.902     3.615E-21
  54047.971     3.546E-21
  54048.041     3.442E-21
  54048.111     3.418E-21
  54048.181     3.379E-21
  54048.250     3.331E-21
  54048.320     3.288E-21
  54048.390     3.269E-21
  54048.460     3.219E-21
  54048.530     3.196E-21
  54048.599     3.164E-21
  54048.669     3.130E-21
  54048.739     3.080E-21
  54048.809     3.018E-21
  54048.878     2.973E-21
  54048.948     2.925E-21
  54049.018     2.905E-21
  54049.088     2.870E-21
  54049.157     2.821E-21
  54049.227     2.747E-21
  54049.297     2.690E-21
  54049.367     2.663E-21
  54049.436     2.634E-21
  54049.506     2.588E-21
  54049.576     2.554E-21
  54049.646     2.503E-21
  54049.715     2.476E-21
  54049.785     2.467E-21
  54049.855     2.425E-21
  54049.925     2.418E-21
  54049.994     2.384E-21
  54050.064     2.358E-21
  54050.134     2.335E-21
  54050.204     2.312E-21
  54050.274     2.306E-21
  54050.343     2.310E-21
  54050.413     2.284E-21
  54050.483     2.251E-21
  54050.553     2.243E-21
  54050.622     2.255E-21
  54050.692     2.227E-21
  54050.762     2.194E-21
  54050.832     2.174E-21
  54050.901     2.172E-21
  54050.971     2.158E-21
  54051.041     2.151E-21
  54051.111     2.153E-21
  54051.180     2.157E-21
  54051.250     2.171E-21
  54051.320     2.151E-21
  54051.390     2.145E-21
  54051.459     2.168E-21
  54051.529     2.189E-21
  54051.599     2.222E-21
  54051.669     2.213E-21
  54051.739     2.206E-21
  54051.808     2.211E-21
  54051.878     2.221E-21
  54051.948     2.226E-21
  54052.018     2.221E-21
  54052.087     2.172E-21
  54052.157     2.133E-21
  54052.227     2.103E-21
  54052.297     2.030E-21
  54052.366     2.009E-21
  54052.436     1.989E-21
  54052.506     1.972E-21
  54052.576     1.990E-21
  54052.645     2.022E-21
  54052.715     2.012E-21
  54052.785     2.015E-21
  54052.855     2.016E-21
  54052.924     2.003E-21
  54052.994     1.999E-21
  54053.064     2.007E-21
  54053.134     2.012E-21
  54053.204     1.987E-21
  54053.273     1.971E-21
  54053.343     2.003E-21
  54053.413     2.027E-21
  54053.483     2.059E-21
  54053.552     2.069E-21
  54053.622     2.059E-21
  54053.692     2.067E-21
  54053.762     2.073E-21
  54053.831     2.054E-21
  54053.901     2.060E-21
  54053.971     2.035E-21
  54054.041     2.038E-21
  54054.110     2.032E-21
  54054.180     2.015E-21
  54054.250     2.032E-21
  54054.320     2.061E-21
  54054.390     2.076E-21
  54054.459     2.099E-21
  54054.529     2.110E-21
  54054.599     2.129E-21
  54054.669     2.148E-21
  54054.738     2.203E-21
  54054.808     2.199E-21
  54054.878     2.208E-21
  54054.948     2.202E-21
  54055.017     2.192E-21
  54055.087     2.183E-21
  54055.157     2.209E-21
  54055.227     2.228E-21
  54055.297     2.207E-21
  54055.366     2.194E-21
  54055.436     2.203E-21
  54055.506     2.246E-21
  54055.576     2.317E-21
  54055.645     2.431E-21
  54055.715     2.548E-21
  54055.785     2.672E-21
  54055.855     2.838E-21
  54055.924     2.986E-21
  54055.994     3.159E-21
  54056.064     3.332E-21
  54056.134     3.514E-21
  54056.204     3.641E-21
  54056.273     3.762E-21
  54056.343     3.845E-21
  54056.413     3.799E-21
  54056.483     3.725E-21
  54056.552     3.598E-21
  54056.622     3.482E-21
  54056.692     3.359E-21
  54056.762     3.275E-21
  54056.831     3.207E-21
  54056.901     3.202E-21
  54056.971     3.241E-21
  54057.041     3.336E-21
  54057.111     3.486E-21
  54057.181     3.565E-21
  54057.251     3.668E-21
  54057.321     3.804E-21
  54057.392     3.922E-21
  54057.461     4.002E-21
  54057.531     3.996E-21
  54057.602     3.945E-21
  54057.672     3.895E-21
  54057.741     3.848E-21
  54057.812     3.802E-21
  54057.882     3.679E-21
  54057.952     3.596E-21
  54058.023     3.449E-21
  54058.092     3.300E-21
  54058.162     3.180E-21
  54058.233     3.049E-21
  54058.303     2.941E-21
  54058.372     2.826E-21
  54058.443     2.712E-21
  54058.513     2.604E-21
  54058.583     2.494E-21
  54058.653     2.431E-21
  54058.723     2.356E-21
  54058.793     2.288E-21
  54058.863     2.267E-21
  54058.934     2.241E-21
  54059.003     2.210E-21
  54059.074     2.193E-21
  54059.144     2.173E-21
  54059.214     2.138E-21
  54059.284     2.125E-21
  54059.354     2.114E-21
  54059.424     2.107E-21
  54059.494     2.114E-21
  54059.565     2.136E-21
  54059.634     2.130E-21
  54059.705     2.139E-21
  54059.775     2.160E-21
  54059.845     2.161E-21
  54059.915     2.188E-21
  54059.985     2.204E-21
  54060.056     2.223E-21
  54060.125     2.240E-21
  54060.195     2.259E-21
  54060.266     2.290E-21
  54060.336     2.332E-21
  54060.406     2.387E-21
  54060.476     2.447E-21
  54060.546     2.506E-21
  54060.616     2.538E-21
  54060.687     2.591E-21
  54060.756     2.637E-21
  54060.826     2.699E-21
  54060.897     2.791E-21
  54060.967     2.881E-21
  54061.037     2.939E-21
  54061.107     3.022E-21
  54061.177     3.132E-21
  54061.247     3.256E-21
  54061.318     3.373E-21
  54061.387     3.495E-21
  54061.457     3.678E-21
  54061.528     3.941E-21
  54061.598     4.199E-21
  54061.667     4.471E-21
  54061.738     4.791E-21
  54061.808     5.133E-21
  54061.878     5.506E-21
  54061.949     5.846E-21
  54062.018     6.160E-21
  54062.088     6.393E-21
  54062.159     6.605E-21
  54062.229     6.733E-21
  54062.298     6.759E-21
  54062.369     6.685E-21
  54062.439     6.572E-21
  54062.509     6.379E-21
  54062.580     6.232E-21
  54062.649     6.078E-21
  54062.719     6.003E-21
  54062.790     5.979E-21
  54062.860     5.886E-21
  54062.929     5.811E-21
  54063.000     5.813E-21
  54063.000     5.809E-21
  54063.070     5.774E-21
  54063.140     5.776E-21
  54063.210     5.744E-21
  54063.279     5.736E-21
  54063.349     5.785E-21
  54063.419     5.837E-21
  54063.489     5.894E-21
  54063.558     5.815E-21
  54063.628     5.751E-21
  54063.698     5.677E-21
  54063.768     5.678E-21
  54063.838     5.606E-21
  54063.907     5.458E-21
  54063.977     5.373E-21
  54064.047     5.323E-21
  54064.117     5.269E-21
  54064.186     5.221E-21
  54064.256     5.197E-21
  54064.326     5.120E-21
  54064.396     5.010E-21
  54064.466     4.874E-21
  54064.535     4.737E-21
  54064.605     4.659E-21
  54064.675     4.613E-21
  54064.745     4.548E-21
  54064.814     4.562E-21
  54064.884     4.579E-21
  54064.954     4.489E-21
  54065.024     4.489E-21
  54065.094     4.485E-21
  54065.163     4.531E-21
  54065.233     4.555E-21
  54065.303     4.544E-21
  54065.373     4.447E-21
  54065.442     4.455E-21
  54065.512     4.498E-21
  54065.582     4.459E-21
  54065.652     4.559E-21
  54065.722     4.595E-21
  54065.791     4.598E-21
  54065.861     4.635E-21
  54065.931     4.669E-21
  54066.001     4.696E-21
  54066.071     4.745E-21
  54066.140     4.818E-21
  54066.210     4.859E-21
  54066.280     4.897E-21
  54066.350     4.940E-21
  54066.419     5.003E-21
  54066.489     5.073E-21
  54066.559     5.136E-21
  54066.629     5.169E-21
  54066.699     5.187E-21
  54066.768     5.249E-21
  54066.838     5.342E-21
  54066.908     5.453E-21
  54066.978     5.568E-21
  54067.047     5.689E-21
  54067.117     5.745E-21
  54067.187     5.841E-21
  54067.257     5.995E-21
  54067.327     6.194E-21
  54067.396     6.265E-21
  54067.466     6.355E-21
  54067.536     6.546E-21
  54067.606     6.714E-21
  54067.676     6.943E-21
  54067.745     7.058E-21
  54067.815     7.210E-21
  54067.885     7.403E-21
  54067.955     7.592E-21
  54068.024     7.736E-21
  54068.094     8.068E-21
  54068.165     8.337E-21
  54068.238     8.528E-21
  54068.313     8.772E-21
  54068.438     9.312E-21
  54068.512     9.607E-21
  54068.588     1.005E-20
  54068.659     1.060E-20
  54068.737     1.118E-20
  54068.846     1.181E-20
  54068.924     1.225E-20
  54069.015     1.246E-20
  54069.086     1.269E-20
  54069.169     1.301E-20
  54069.262     1.349E-20
  54069.345     1.388E-20
  54069.430     1.423E-20
  54069.515     1.487E-20
  54069.601     1.595E-20
  54069.673     1.728E-20
  54069.771     1.861E-20
  54069.856     2.004E-20
  54069.941     2.162E-20
  54070.013     2.319E-20
  54070.099     2.465E-20
  54070.184     2.610E-20
  54070.269     2.774E-20
  54070.354     2.959E-20
  54070.439     3.165E-20
  54070.524     3.409E-20
  54070.609     3.722E-20
  54070.693     4.105E-20
  54070.765     4.517E-20
  54070.850     4.928E-20
  54070.935     5.353E-20
  54071.020     5.807E-20
  54071.108     6.261E-20
  54071.193     6.709E-20
  54071.278     7.185E-20
  54071.360     7.712E-20
  54071.445     8.288E-20
  54071.530     8.906E-20
  54071.615     9.518E-20
  54071.700     1.005E-19
  54071.785     1.052E-19
  54071.870     1.098E-19
  54071.955     1.145E-19
  54072.040     1.183E-19
  54072.125     1.197E-19
  54072.210     1.182E-19
  54072.295     1.146E-19
  54072.380     1.105E-19
  54072.465     1.066E-19
  54072.550     1.030E-19
  54072.635     9.925E-20
  54072.720     9.558E-20
  54072.805     9.193E-20
  54072.890     8.824E-20
  54072.979     8.430E-20
  54073.061     7.987E-20
  54073.149     7.496E-20
  54073.234     7.001E-20
  54073.319     6.546E-20
  54073.404     6.187E-20
  54073.489     5.966E-20
  54073.574     5.852E-20
  54073.659     5.789E-20
  54073.745     5.754E-20
  54073.830     5.761E-20
  54073.915     5.835E-20
  54074.000     5.933E-20
  54074.082     5.997E-20
  54074.170     6.062E-20
  54074.255     6.188E-20
  54074.340     6.376E-20
  54074.425     6.630E-20
  54074.510     6.974E-20
  54074.595     7.388E-20
  54074.680     7.827E-20
  54074.762     8.304E-20
  54074.847     8.897E-20
  54074.932     9.625E-20
  54075.017     1.039E-19
  54075.102     1.106E-19
  54075.187     1.157E-19
  54075.272     1.196E-19
  54075.357     1.225E-19
  54075.442     1.253E-19
  54075.527     1.281E-19
  54075.612     1.306E-19
  54075.697     1.316E-19
  54075.782     1.297E-19
  54075.867     1.251E-19
  54075.952     1.197E-19
  54076.037     1.148E-19
  54076.122     1.104E-19
  54076.207     1.059E-19
  54076.292     1.011E-19
  54076.377     9.495E-20
  54076.462     8.719E-20
  54076.551     7.862E-20
  54076.636     7.092E-20
  54076.721     6.499E-20
  54076.806     6.039E-20
  54076.891     5.624E-20
  54076.976     5.229E-20
  54077.058     4.887E-20
  54077.146     4.592E-20
  54077.231     4.308E-20
  54077.316     4.046E-20
  54077.411     3.839E-20
  54077.483     3.683E-20
  54077.583     3.567E-20
  54077.668     3.511E-20
  54077.753     3.517E-20
  54077.838     3.540E-20
  54077.923     3.543E-20
  54078.008     3.506E-20
  54078.093     3.411E-20
  54078.178     3.261E-20
  54078.263     3.075E-20
  54078.348     2.878E-20
  54078.433     2.703E-20
  54078.518     2.580E-20
  54078.603     2.501E-20
  54078.688     2.421E-20
  54078.773     2.321E-20
  54078.870     2.221E-20
  54078.956     2.146E-20
  54079.028     2.096E-20
  54079.126     2.032E-20
  54079.211     1.929E-20
  54079.296     1.814E-20
  54079.381     1.722E-20
  54079.466     1.657E-20
  54079.551     1.603E-20
  54079.636     1.553E-20
  54079.721     1.510E-20
  54079.806     1.474E-20
  54079.906     1.427E-20
  54079.974     1.357E-20
  54080.055     1.261E-20
  54080.151     1.132E-20
  54080.244     1.037E-20
  54080.324     9.772E-21
  54080.430     9.410E-21
  54080.509     9.236E-21
  54080.587     9.056E-21
  54080.664     8.742E-21
  54080.738     8.465E-21
  54080.859     8.177E-21
  54080.934     7.909E-21
  54081.007     7.705E-21
  54081.079     7.610E-21
  54081.148     7.476E-21
  54081.215     7.320E-21
  54081.285     7.278E-21
  54081.355     7.192E-21
  54081.425     7.027E-21
  54081.495     6.934E-21
  54081.564     6.867E-21
  54081.634     6.702E-21
  54081.704     6.569E-21
  54081.774     6.388E-21
  54081.844     6.216E-21
  54081.913     6.089E-21
  54081.983     5.893E-21
  54082.053     5.781E-21
  54082.123     5.643E-21
  54082.193     5.548E-21
  54082.262     5.427E-21
  54082.332     5.417E-21
  54082.402     5.474E-21
  54082.472     5.327E-21
  54082.542     5.422E-21
  54082.611     5.361E-21
  54082.681     5.193E-21
  54082.751     4.948E-21
  54082.821     4.707E-21
  54082.891     4.494E-21
  54082.960     4.239E-21
  54083.030     4.064E-21
  54083.100     3.922E-21
  54083.170     3.861E-21
  54083.240     3.836E-21
  54083.309     3.781E-21
  54083.379     3.726E-21
  54083.449     3.711E-21
  54083.519     3.725E-21
  54083.589     3.702E-21
  54083.658     3.652E-21
  54083.728     3.636E-21
  54083.798     3.619E-21
  54083.868     3.540E-21
  54083.938     3.507E-21
  54084.008     3.499E-21
  54084.077     3.475E-21
  54084.147     3.479E-21
  54084.217     3.453E-21
  54084.287     3.397E-21
  54084.357     3.368E-21
  54084.426     3.318E-21
  54084.496     3.273E-21
  54084.566     3.290E-21
  54084.636     3.318E-21
  54084.706     3.373E-21
  54084.775     3.365E-21
  54084.845     3.315E-21
  54084.915     3.271E-21
  54084.985     3.239E-21
  54085.055     3.259E-21
  54085.124     3.306E-21
  54085.194     3.368E-21
  54085.264     3.444E-21
  54085.334     3.520E-21
  54085.404     3.613E-21
  54085.473     3.680E-21
  54085.543     3.772E-21
  54085.613     3.929E-21
  54085.683     4.173E-21
  54085.753     4.409E-21
  54085.822     4.648E-21
  54085.892     4.746E-21
  54085.962     4.784E-21
  54086.032     4.769E-21
  54086.102     4.789E-21
  54086.172     4.676E-21
  54086.241     4.479E-21
  54086.311     4.297E-21
  54086.381     4.138E-21
  54086.451     3.993E-21
  54086.521     3.892E-21
  54086.590     3.813E-21
  54086.660     3.815E-21
  54086.730     3.860E-21
  54086.800     3.946E-21
  54086.870     4.006E-21
  54086.939     4.123E-21
  54087.009     4.207E-21
  54087.079     4.350E-21
  54087.149     4.442E-21
  54087.219     4.525E-21
  54087.288     4.556E-21
  54087.359     4.642E-21
  54087.429     4.695E-21
  54087.499     4.692E-21
  54087.569     4.708E-21
  54087.639     4.660E-21
  54087.708     4.641E-21
  54087.778     4.621E-21
  54087.848     4.591E-21
  54087.919     4.530E-21
  54087.989     4.485E-21
  54088.058     4.452E-21
  54088.128     4.459E-21
  54088.198     4.429E-21
  54088.268     4.232E-21
  54088.338     4.091E-21
  54088.407     3.945E-21
  54088.477     3.765E-21
  54088.548     3.596E-21
  54088.618     3.473E-21
  54088.688     3.380E-21
  54088.758     3.329E-21
  54088.827     3.293E-21
  54088.897     3.235E-21
  54088.967     3.207E-21
  54089.037     3.176E-21
  54089.107     3.111E-21
  54089.177     3.081E-21
  54089.247     3.071E-21
  54089.317     3.046E-21
  54089.387     3.007E-21
  54089.457     2.973E-21
  54089.526     2.945E-21
  54089.596     2.918E-21
  54089.666     2.892E-21
  54089.737     2.867E-21
  54089.807     2.848E-21
  54089.877     2.837E-21
  54089.946     2.838E-21
  54090.016     2.818E-21
  54090.086     2.830E-21
  54090.156     2.869E-21
  54090.226     2.897E-21
  54090.295     2.971E-21
  54090.366     3.015E-21
  54090.436     3.056E-21
  54090.506     3.107E-21
  54090.576     3.163E-21
  54090.645     3.229E-21
  54090.715     3.271E-21
  54090.785     3.278E-21
  54090.855     3.274E-21
  54090.926     3.251E-21
  54090.996     3.188E-21
  54091.065     3.127E-21
  54091.135     3.081E-21
  54091.205     3.054E-21
  54091.275     3.021E-21
  54091.345     3.031E-21
  54091.414     3.040E-21
  54091.484     3.069E-21
  54091.555     3.116E-21
  54091.625     3.131E-21
  54091.695     3.144E-21
  54091.765     3.199E-21
  54091.834     3.272E-21
  54091.904     3.318E-21
  54091.974     3.372E-21
  54092.044     3.427E-21
  54092.114     3.436E-21
  54092.184     3.425E-21
  54092.254     3.434E-21
  54092.324     3.432E-21
  54092.394     3.404E-21
  54092.464     3.412E-21
  54092.534     3.400E-21
  54092.603     3.439E-21
  54092.673     3.475E-21
  54092.744     3.505E-21
  54092.814     3.567E-21
  54092.884     3.620E-21
  54092.953     3.685E-21
  54093.023     3.766E-21
  54093.093     3.823E-21
  54093.163     3.874E-21
  54093.233     3.956E-21
  54093.303     4.047E-21
  54093.372     4.119E-21
  54093.442     4.182E-21
  54093.512     4.234E-21
  54093.582     4.249E-21
  54093.652     4.167E-21
  54093.721     4.087E-21
  54093.791     4.026E-21
  54093.861     3.964E-21
  54093.931     3.973E-21
  54094.001     4.029E-21
  54094.071     4.043E-21
  54094.140     4.087E-21
  54094.210     4.137E-21
  54094.280     4.213E-21
  54094.350     4.314E-21
  54094.420     4.444E-21
  54094.489     4.546E-21
  54094.559     4.651E-21
  54094.629     4.787E-21
  54094.699     4.848E-21
  54094.769     4.831E-21
  54094.839     4.879E-21
  54094.908     4.909E-21
  54094.978     4.956E-21
  54095.048     4.962E-21
  54095.118     5.009E-21
  54095.188     5.118E-21
  54095.257     5.131E-21
  54095.327     5.200E-21
  54095.397     5.289E-21
  54095.467     5.352E-21
  54095.537     5.484E-21
  54095.607     5.566E-21
  54095.676     5.657E-21
  54095.746     5.721E-21
  54095.816     5.791E-21
  54095.886     5.870E-21
  54095.956     5.931E-21
  54096.026     6.031E-21
  54096.095     6.189E-21
  54096.165     6.261E-21
  54096.235     6.301E-21
  54096.305     6.384E-21
  54096.375     6.486E-21
  54096.444     6.628E-21
  54096.514     6.782E-21
  54096.584     6.916E-21
  54096.654     7.008E-21
  54096.724     7.165E-21
  54096.794     7.359E-21
  54096.863     7.516E-21
  54096.933     7.574E-21
  54097.073     7.800E-21
  54097.145     8.090E-21
  54097.278     8.561E-21
  54097.349     8.729E-21
  54097.422     8.982E-21
  54097.497     9.343E-21
  54097.568     9.706E-21
  54097.691     1.021E-20
  54097.767     1.055E-20
  54097.836     1.094E-20
  54097.925     1.136E-20
  54097.995     1.185E-20
  54098.078     1.221E-20
  54098.175     1.280E-20
  54098.257     1.353E-20
  54098.341     1.440E-20
  54098.427     1.531E-20
  54098.512     1.601E-20
  54098.597     1.661E-20
  54098.682     1.726E-20
  54098.767     1.820E-20
  54098.852     1.945E-20
  54098.937     2.063E-20
  54099.022     2.133E-20
  54099.107     2.170E-20
  54099.192     2.233E-20
  54099.277     2.361E-20
  54099.350     2.553E-20
  54099.435     2.787E-20
  54099.520     3.028E-20
  54099.605     3.234E-20
  54099.676     3.399E-20
  54099.775     3.572E-20
  54099.846     3.820E-20
  54099.931     4.185E-20
  54100.019     4.634E-20
  54100.101     5.103E-20
  54100.189     5.576E-20
  54100.274     6.045E-20
  54100.359     6.484E-20
  54100.444     6.920E-20
  54100.529     7.442E-20
  54100.611     8.104E-20
  54100.696     8.886E-20
  54100.781     9.750E-20
  54100.866     1.063E-19
  54100.951     1.147E-19
  54101.036     1.224E-19
  54101.121     1.285E-19
  54101.206     1.321E-19
  54101.291     1.346E-19
  54101.376     1.370E-19
  54101.461     1.387E-19
  54101.546     1.392E-19
  54101.631     1.391E-19
  54101.716     1.382E-19
  54101.801     1.347E-19
  54101.886     1.290E-19
  54101.971     1.233E-19
  54102.056     1.186E-19
  54102.141     1.138E-19
  54102.226     1.080E-19
  54102.311     1.019E-19
  54102.396     9.693E-20
  54102.481     9.332E-20
  54102.566     9.061E-20
  54102.651     8.869E-20
  54102.736     8.780E-20
  54102.821     8.770E-20
  54102.906     8.804E-20
  54102.991     8.860E-20
  54103.076     8.940E-20
  54103.161     9.062E-20
  54103.246     9.233E-20
  54103.331     9.459E-20
  54103.416     9.774E-20
  54103.501     1.020E-19
  54103.587     1.069E-19
  54103.672     1.118E-19
  54103.757     1.163E-19
  54103.842     1.203E-19
  54103.927     1.239E-19
  54104.012     1.278E-19
  54104.097     1.322E-19
  54104.182     1.356E-19
  54104.267     1.367E-19
  54104.352     1.349E-19
  54104.437     1.322E-19
  54104.522     1.306E-19
  54104.607     1.284E-19
  54104.692     1.230E-19
  54104.777     1.147E-19
  54104.862     1.053E-19
  54104.947     9.625E-20
  54105.032     8.804E-20
  54105.117     8.105E-20
  54105.202     7.508E-20
  54105.290     6.933E-20
  54105.375     6.353E-20
  54105.460     5.848E-20
  54105.545     5.473E-20
  54105.630     5.140E-20
  54105.715     4.740E-20
  54105.797     4.297E-20
  54105.896     3.922E-20
  54105.981     3.662E-20
  54106.066     3.468E-20
  54106.151     3.275E-20
  54106.236     3.069E-20
  54106.321     2.876E-20
  54106.406     2.715E-20
  54106.491     2.579E-20
  54106.576     2.442E-20
  54106.674     2.300E-20
  54106.759     2.167E-20
  54106.844     2.049E-20
  54106.929     1.945E-20
  54107.099     1.790E-20
  54107.185     1.730E-20
  54107.269     1.679E-20
  54107.351     1.607E-20
  54107.431     1.512E-20
  54107.531     1.402E-20
  54107.612     1.328E-20
  54107.700     1.272E-20
  54107.776     1.235E-20
  54107.843     1.203E-20
  54107.960     1.136E-20
  54108.040     1.080E-20
  54108.113     1.037E-20
  54108.241     9.838E-21
  54108.315     9.602E-21
  54108.385     9.379E-21
  54108.455     9.241E-21
  54108.525     9.103E-21
  54108.595     8.863E-21
  54108.665     8.613E-21
  54108.735     8.393E-21
  54108.804     8.252E-21
  54108.874     8.079E-21
  54108.944     7.990E-21
  54109.014     7.860E-21
  54109.084     7.675E-21
  54109.154     7.498E-21
  54109.224     7.356E-21
  54109.293     7.166E-21
  54109.363     6.956E-21
  54109.433     6.767E-21
  54109.503     6.691E-21
  54109.573     6.607E-21
  54109.643     6.575E-21
  54109.712     6.456E-21
  54109.782     6.329E-21
  54109.852     6.181E-21
  54109.922     6.077E-21
  54109.992     5.973E-21
  54110.062     5.837E-21
  54110.131     5.746E-21
  54110.201     5.699E-21
  54110.271     5.729E-21
  54110.341     5.613E-21
  54110.411     5.526E-21
  54110.481     5.437E-21
  54110.550     5.328E-21
  54110.620     5.282E-21
  54110.690     5.235E-21
  54110.760     5.220E-21
  54110.830     5.231E-21
  54110.900     5.169E-21
  54110.970     5.094E-21
  54111.039     4.989E-21
  54111.109     4.950E-21
  54111.179     4.909E-21
  54111.249     4.827E-21
  54111.319     4.686E-21
  54111.389     4.682E-21
  54111.458     4.657E-21
  54111.528     4.593E-21
  54111.598     4.562E-21
  54111.668     4.505E-21
  54111.738     4.443E-21
  54111.808     4.465E-21
  54111.877     4.496E-21
  54111.947     4.496E-21
  54112.017     4.439E-21
  54112.087     4.343E-21
  54112.158     4.332E-21
  54112.228     4.249E-21
  54112.298     4.163E-21
  54112.368     4.180E-21
  54112.438     4.117E-21
  54112.509     4.126E-21
  54112.579     4.015E-21
  54112.649     3.968E-21
  54112.719     3.970E-21
  54112.789     3.975E-21
  54112.859     3.950E-21
  54112.930     3.900E-21
  54113.000     3.882E-21
  54113.070     3.885E-21
  54113.141     3.892E-21
  54113.211     3.881E-21
  54113.280     3.924E-21
  54113.351     3.918E-21
  54113.421     3.907E-21
  54113.491     3.894E-21
  54113.562     3.889E-21
  54113.632     3.875E-21
  54113.702     3.895E-21
  54113.772     3.861E-21
  54113.842     3.846E-21
  54113.912     3.870E-21
  54113.983     3.862E-21
  54114.053     3.857E-21
  54114.123     3.862E-21
  54114.193     3.880E-21
  54114.264     3.878E-21
  54114.334     3.878E-21
  54114.404     3.841E-21
  54114.474     3.787E-21
  54114.545     3.771E-21
  54114.614     3.805E-21
  54114.685     3.827E-21
  54114.755     3.831E-21
  54114.825     3.837E-21
  54114.895     3.821E-21
  54114.966     3.816E-21
  54115.036     3.827E-21
  54115.106     3.842E-21
  54115.176     3.859E-21
  54115.246     3.890E-21
  54115.316     3.929E-21
  54115.387     3.965E-21
  54115.457     3.991E-21
  54115.527     4.010E-21
  54115.597     4.023E-21
  54115.668     4.033E-21
  54115.737     4.083E-21
  54115.808     4.124E-21
  54115.878     4.155E-21
  54115.949     4.200E-21
  54116.019     4.240E-21
  54116.089     4.273E-21
  54116.159     4.297E-21
  54116.229     4.337E-21
  54116.299     4.411E-21
  54116.370     4.491E-21
  54116.440     4.551E-21
  54116.510     4.575E-21
  54116.580     4.629E-21
  54116.650     4.683E-21
  54116.720     4.747E-21
  54116.791     4.801E-21
  54116.861     4.859E-21
  54116.931     4.932E-21
  54117.002     4.949E-21
  54117.071     4.951E-21
  54117.141     4.947E-21
  54117.212     4.982E-21
  54117.282     5.049E-21
  54117.353     5.118E-21
  54117.423     5.164E-21
  54117.493     5.231E-21
  54117.563     5.158E-21
  54117.633     5.155E-21
  54117.703     5.191E-21
  54117.774     5.199E-21
  54117.844     5.242E-21
  54117.914     5.253E-21
  54117.985     5.176E-21
  54118.054     5.209E-21
  54118.124     5.311E-21
  54118.194     5.356E-21
  54118.264     5.470E-21
  54118.334     5.583E-21
  54118.404     5.655E-21
  54118.473     5.711E-21
  54118.543     5.765E-21
  54118.613     5.804E-21
  54118.683     5.864E-21
  54118.753     5.944E-21
  54118.823     6.011E-21
  54118.893     6.068E-21
  54118.962     6.168E-21
  54119.032     6.295E-21
  54119.102     6.420E-21
  54119.172     6.530E-21
  54119.242     6.656E-21
  54119.312     6.706E-21
  54119.381     6.768E-21
  54119.451     6.905E-21
  54119.521     7.061E-21
  54119.592     7.264E-21
  54119.665     7.387E-21
  54119.797     7.608E-21
  54119.869     7.865E-21
  54119.943     8.220E-21
  54120.013     8.540E-21
  54120.138     8.847E-21
  54120.213     9.055E-21
  54120.290     9.384E-21
  54120.359     9.814E-21
  54120.438     1.019E-20
  54120.553     1.057E-20
  54120.633     1.092E-20
  54120.701     1.131E-20
  54120.797     1.180E-20
  54120.867     1.242E-20
  54120.971     1.315E-20
  54121.039     1.380E-20
  54121.124     1.412E-20
  54121.209     1.432E-20
  54121.294     1.460E-20
  54121.379     1.514E-20
  54121.464     1.605E-20
  54121.549     1.719E-20
  54121.621     1.816E-20
  54121.719     1.864E-20
  54121.804     1.887E-20
  54121.889     1.934E-20
  54121.974     2.031E-20
  54122.046     2.171E-20
  54122.131     2.310E-20
  54122.216     2.425E-20
  54122.301     2.539E-20
  54122.386     2.687E-20
  54122.471     2.873E-20
  54122.556     3.085E-20
  54122.641     3.330E-20
  54122.712     3.622E-20
  54122.811     3.952E-20
  54122.886     4.274E-20
  54122.967     4.550E-20
  54123.052     4.817E-20
  54123.140     5.139E-20
  54123.222     5.537E-20
  54123.310     5.978E-20
  54123.395     6.434E-20
  54123.480     6.966E-20
  54123.565     7.658E-20
  54123.647     8.457E-20
  54123.732     9.247E-20
  54123.817     1.001E-19
  54123.902     1.079E-19
  54123.987     1.159E-19
  54124.072     1.243E-19
  54124.167     1.326E-19
  54124.242     1.394E-19
  54124.327     1.439E-19
  54124.412     1.462E-19
  54124.507     1.463E-19
  54124.582     1.446E-19
  54124.667     1.425E-19
  54124.752     1.405E-19
  54124.837     1.382E-19
  54124.922     1.357E-19
  54125.007     1.333E-19
  54125.092     1.311E-19
  54125.177     1.283E-19
  54125.262     1.244E-19
  54125.347     1.197E-19
  54125.432     1.150E-19
  54125.517     1.115E-19
  54125.602     1.102E-19
  54125.687     1.107E-19
  54125.772     1.121E-19
  54125.857     1.139E-19
  54125.942     1.157E-19
  54126.027     1.171E-19
  54126.112     1.185E-19
  54126.197     1.207E-19
  54126.282     1.236E-19
  54126.367     1.262E-19
  54126.452     1.280E-19
  54126.537     1.293E-19
  54126.622     1.292E-19
  54126.707     1.274E-19
  54126.792     1.246E-19
  54126.877     1.202E-19
  54126.962     1.132E-19
  54127.047     1.049E-19
  54127.132     9.712E-20
  54127.217     9.027E-20
  54127.301     8.386E-20
  54127.390     7.755E-20
  54127.475     7.086E-20
  54127.560     6.328E-20
  54127.645     5.558E-20
  54127.730     4.927E-20
  54127.811     4.487E-20
  54127.896     4.183E-20
  54127.981     3.959E-20
  54128.066     3.810E-20
  54128.151     3.743E-20
  54128.236     3.704E-20
  54128.336     3.604E-20
  54128.421     3.428E-20
  54128.505     3.220E-20
  54128.590     3.016E-20
  54128.675     2.832E-20
  54128.760     2.666E-20
  54128.845     2.507E-20
  54128.943     2.371E-20
  54129.015     2.274E-20
  54129.113     2.198E-20
  54129.198     2.123E-20
  54129.283     2.050E-20
  54129.368     1.973E-20
  54129.453     1.876E-20
  54129.538     1.758E-20
  54129.622     1.633E-20
  54129.707     1.530E-20
  54129.792     1.456E-20
  54129.875     1.408E-20
  54129.957     1.362E-20
  54130.052     1.311E-20
  54130.134     1.271E-20
  54130.214     1.230E-20
  54130.293     1.190E-20
  54130.410     1.144E-20
  54130.489     1.120E-20
  54130.565     1.089E-20
  54130.634     1.064E-20
  54130.760     1.031E-20
  54130.831     1.004E-20
  54130.909     9.778E-21
  54130.981     9.517E-21
  54131.052     9.285E-21
  54131.120     8.951E-21
  54131.257     8.568E-21
  54131.327     8.463E-21
  54131.397     8.354E-21
  54131.467     8.234E-21
  54131.537     8.252E-21
  54131.607     8.326E-21
  54131.677     8.304E-21
  54131.746     8.245E-21
  54131.816     8.128E-21
  54131.886     7.914E-21
  54131.956     7.881E-21
  54132.026     7.779E-21
  54132.096     7.545E-21
  54132.166     7.368E-21
  54132.236     7.195E-21
  54132.305     7.070E-21
  54132.375     7.081E-21
  54132.445     6.972E-21
  54132.515     6.805E-21
  54132.585     6.720E-21
  54132.655     6.713E-21
  54132.725     6.567E-21
  54132.794     6.498E-21
  54132.864     6.447E-21
  54132.934     6.380E-21
  54133.004     6.376E-21
  54133.074     6.352E-21
  54133.144     6.335E-21
  54133.214     6.376E-21
  54133.284     6.322E-21
  54133.353     6.280E-21
  54133.423     6.331E-21
  54133.493     6.312E-21
  54133.563     6.249E-21
  54133.633     6.184E-21
  54133.703     6.154E-21
  54133.773     6.207E-21
  54133.842     6.365E-21
  54133.912     6.375E-21
  54133.982     6.335E-21
  54134.052     6.294E-21
  54134.122     6.359E-21
  54134.192     6.429E-21
  54134.262     6.476E-21
  54134.332     6.487E-21
  54134.401     6.505E-21
  54134.471     6.627E-21
  54134.541     6.529E-21
  54134.611     6.539E-21
  54134.681     6.540E-21
  54134.751     6.481E-21
  54134.821     6.393E-21
  54134.891     6.374E-21
  54134.960     6.369E-21
  54135.030     6.380E-21
  54135.100     6.526E-21
  54135.170     6.698E-21
  54135.240     6.653E-21
  54135.310     6.568E-21
  54135.380     6.618E-21
  54135.450     6.706E-21
  54135.519     6.747E-21
  54135.589     7.018E-21
  54135.659     7.236E-21
  54135.729     7.400E-21
  54135.799     7.446E-21
  54135.869     7.457E-21
  54135.939     7.520E-21
  54136.008     7.592E-21
  54136.078     7.705E-21
  54136.148     7.663E-21
  54136.218     7.636E-21
  54136.288     7.597E-21
  54136.358     7.674E-21
  54136.428     7.885E-21
  54136.498     7.994E-21
  54136.567     8.144E-21
  54136.637     8.306E-21
  54136.777     8.573E-21
  54136.848     8.685E-21
  54136.921     8.847E-21
  54137.053     9.237E-21
  54137.124     9.575E-21
  54137.193     9.867E-21
  54137.268     1.014E-20
  54137.344     1.041E-20
  54137.467     1.096E-20
  54137.535     1.123E-20
  54137.612     1.147E-20
  54137.691     1.166E-20
  54137.805     1.203E-20
  54137.872     1.244E-20
  54137.953     1.300E-20
  54138.035     1.363E-20
  54138.119     1.422E-20
  54138.205     1.481E-20
  54138.290     1.539E-20
  54138.375     1.607E-20
  54138.460     1.686E-20
  54138.545     1.770E-20
  54138.630     1.860E-20
  54138.715     1.950E-20
  54138.788     2.028E-20
  54138.885     2.098E-20
  54138.970     2.183E-20
  54139.055     2.297E-20
  54139.140     2.441E-20
  54139.213     2.613E-20
  54139.298     2.797E-20
  54139.383     2.975E-20
  54139.468     3.147E-20
  54139.553     3.341E-20
  54139.638     3.597E-20
  54139.708     3.901E-20
  54139.793     4.174E-20
  54139.882     4.370E-20
  54139.963     4.535E-20
  54140.052     4.749E-20
  54140.137     5.050E-20
  54140.222     5.460E-20
  54140.307     5.968E-20
  54140.392     6.488E-20
  54140.477     6.943E-20
  54140.558     7.381E-20
  54140.643     7.900E-20
  54140.728     8.542E-20
  54140.813     9.307E-20
  54140.898     1.019E-19
  54140.983     1.112E-19
  54141.068     1.193E-19
  54141.153     1.253E-19
  54141.238     1.296E-19
  54141.323     1.340E-19
  54141.408     1.391E-19
  54141.493     1.438E-19
  54141.578     1.463E-19
  54141.663     1.459E-19
  54141.758     1.437E-19
  54141.833     1.412E-19
  54141.918     1.398E-19
  54142.003     1.390E-19
  54142.088     1.374E-19
  54142.173     1.347E-19
  54142.258     1.325E-19
  54142.343     1.311E-19
  54142.428     1.298E-19
  54142.513     1.278E-19
  54142.598     1.246E-19
  54142.682     1.207E-19
  54142.767     1.170E-19
  54142.852     1.145E-19
  54142.937     1.130E-19
  54143.022     1.119E-19
  54143.107     1.105E-19
  54143.192     1.086E-19
  54143.277     1.057E-19
  54143.362     1.016E-19
  54143.447     9.611E-20
  54143.532     8.961E-20
  54143.621     8.282E-20
  54143.705     7.657E-20
  54143.790     7.122E-20
  54143.875     6.666E-20
  54143.960     6.265E-20
  54144.045     5.928E-20
  54144.130     5.662E-20
  54144.215     5.441E-20
  54144.300     5.220E-20
  54144.385     4.993E-20
  54144.470     4.776E-20
  54144.555     4.560E-20
  54144.640     4.310E-20
  54144.736     4.037E-20
  54144.807     3.785E-20
  54144.906     3.553E-20
  54144.991     3.329E-20
  54145.076     3.133E-20
  54145.161     2.977E-20
  54145.246     2.856E-20
  54145.331     2.747E-20
  54145.415     2.624E-20
  54145.500     2.480E-20
  54145.598     2.343E-20
  54145.670     2.247E-20
  54145.768     2.191E-20
  54145.840     2.139E-20
  54145.937     2.064E-20
  54146.010     1.977E-20
  54146.107     1.892E-20
  54146.192     1.807E-20
  54146.277     1.713E-20
  54146.362     1.612E-20
  54146.447     1.531E-20
  54146.532     1.495E-20
  54146.617     1.502E-20
  54146.690     1.511E-20
  54146.787     1.493E-20
  54146.872     1.463E-20
  54146.957     1.446E-20
  54147.042     1.443E-20
  54147.127     1.434E-20
  54147.212     1.401E-20
  54147.297     1.346E-20
  54147.382     1.287E-20
  54147.483     1.235E-20
  54147.568     1.198E-20
  54147.653     1.188E-20
  54147.738     1.199E-20
  54147.807     1.218E-20
  54147.908     1.225E-20
  54147.977     1.216E-20
  54148.078     1.204E-20
  54148.147     1.203E-20
  54148.231     1.209E-20
  54148.316     1.212E-20
  54148.401     1.224E-20
  54148.486     1.261E-20
  54148.571     1.308E-20
  54148.656     1.329E-20
  54148.741     1.313E-20
  54148.826     1.284E-20
  54148.927     1.274E-20
  54149.012     1.301E-20
  54149.097     1.358E-20
  54149.166     1.420E-20
  54149.251     1.470E-20
  54149.336     1.506E-20
  54149.421     1.537E-20
  54149.506     1.572E-20
  54149.591     1.617E-20
  54149.676     1.671E-20
  54149.761     1.745E-20
  54149.846     1.856E-20
  54149.931     2.000E-20
  54150.003     2.140E-20
  54150.101     2.248E-20
  54150.173     2.338E-20
  54150.258     2.436E-20
  54150.355     2.546E-20
  54150.428     2.673E-20
  54150.513     2.848E-20
  54150.598     3.071E-20
  54150.683     3.305E-20
  54150.768     3.535E-20
  54150.853     3.770E-20
  54150.927     4.004E-20
  54151.009     4.228E-20
  54151.094     4.463E-20
  54151.182     4.732E-20
  54151.264     5.027E-20
  54151.352     5.343E-20
  54151.437     5.702E-20
  54151.522     6.116E-20
  54151.607     6.569E-20
  54151.692     7.068E-20
  54151.774     7.623E-20
  54151.859     8.165E-20
  54151.944     8.600E-20
  54152.028     8.980E-20
  54152.113     9.426E-20
  54152.198     9.965E-20
  54152.283     1.048E-19
  54152.368     1.081E-19
  54152.453     1.089E-19
  54152.538     1.084E-19
  54152.623     1.078E-19
  54152.708     1.073E-19
  54152.793     1.061E-19
  54152.878     1.039E-19
  54152.963     1.008E-19
  54153.048     9.642E-20
  54153.133     9.078E-20
  54153.218     8.424E-20
  54153.306     7.766E-20
  54153.391     7.179E-20
  54153.476     6.699E-20
  54153.561     6.299E-20
  54153.646     5.918E-20
  54153.731     5.517E-20
  54153.816     5.096E-20
  54153.897     4.712E-20
  54153.982     4.438E-20
  54154.067     4.287E-20
  54154.152     4.218E-20
  54154.241     4.160E-20
  54154.326     4.058E-20
  54154.421     3.919E-20
  54154.506     3.815E-20
  54154.591     3.801E-20
  54154.665     3.841E-20
  54154.747     3.858E-20
  54154.846     3.832E-20
  54154.931     3.795E-20
  54155.016     3.785E-20
  54155.101     3.819E-20
  54155.172     3.889E-20
  54155.260     3.947E-20
  54155.342     3.935E-20
  54155.441     3.870E-20
  54155.526     3.813E-20
  54155.596     3.784E-20
  54155.681     3.767E-20
  54155.766     3.762E-20
  54155.865     3.774E-20
  54155.936     3.800E-20
  54156.021     3.860E-20
  54156.106     3.979E-20
  54156.191     4.141E-20
  54156.280     4.321E-20
  54156.361     4.500E-20
  54156.450     4.666E-20
  54156.531     4.803E-20
  54156.619     4.910E-20
  54156.704     5.009E-20
  54156.789     5.121E-20
  54156.874     5.244E-20
  54156.959     5.364E-20
  54157.044     5.488E-20
  54157.129     5.613E-20
  54157.214     5.720E-20
  54157.299     5.829E-20
  54157.384     5.973E-20
  54157.469     6.131E-20
  54157.554     6.232E-20
  54157.639     6.223E-20
  54157.724     6.099E-20
  54157.809     5.891E-20
  54157.894     5.635E-20
  54157.979     5.339E-20
  54158.064     5.010E-20
  54158.149     4.699E-20
  54158.234     4.450E-20
  54158.315     4.240E-20
  54158.413     4.038E-20
  54158.499     3.864E-20
  54158.583     3.736E-20
  54158.669     3.620E-20
  54158.754     3.490E-20
  54158.839     3.361E-20
  54158.924     3.226E-20
  54159.009     3.071E-20
  54159.094     2.921E-20
  54159.179     2.801E-20
  54159.264     2.701E-20
  54159.348     2.599E-20
  54159.433     2.480E-20
  54159.531     2.337E-20
  54159.615     2.185E-20
  54159.688     2.038E-20
  54159.785     1.905E-20
  54159.870     1.799E-20
  54159.955     1.721E-20
  54160.040     1.651E-20
  54160.125     1.560E-20
  54160.295     1.336E-20
  54160.394     1.262E-20
  54160.461     1.230E-20
  54160.553     1.221E-20
  54160.636     1.221E-20
  54160.717     1.213E-20
  54160.829     1.204E-20
  54160.900     1.187E-20
  54160.990     1.164E-20
  54161.060     1.129E-20
  54161.146     1.079E-20
  54161.259     9.954E-21
  54161.336     9.368E-21
  54161.412     8.906E-21
  54161.487     8.503E-21
  54161.560     8.254E-21
  54161.687     8.024E-21
  54161.760     7.902E-21
  54161.832     7.877E-21
  54161.903     7.802E-21
  54162.042     7.940E-21
  54162.112     7.975E-21
  54162.182     8.002E-21
  54162.252     7.860E-21
  54162.323     7.708E-21
  54162.393     7.477E-21
  54162.463     7.204E-21
  54162.533     6.874E-21
  54162.603     6.651E-21
  54162.674     6.399E-21
  54162.744     6.127E-21
  54162.814     5.850E-21
  54162.884     5.592E-21
  54162.954     5.334E-21
  54163.024     5.029E-21
  54163.095     4.801E-21
  54163.165     4.592E-21
  54163.235     4.420E-21
  54163.305     4.225E-21
  54163.375     4.033E-21
  54163.445     3.892E-21
  54163.516     3.798E-21
  54163.586     3.664E-21
  54163.656     3.540E-21
  54163.726     3.452E-21
  54163.796     3.378E-21
  54163.867     3.314E-21
  54163.937     3.252E-21
  54164.007     3.189E-21
  54164.077     3.103E-21
  54164.147     3.077E-21
  54164.217     3.028E-21
  54164.288     2.975E-21
  54164.358     2.972E-21
  54164.428     3.027E-21
  54164.498     3.075E-21
  54164.568     3.159E-21
  54164.638     3.243E-21
  54164.709     3.280E-21
  54164.779     3.329E-21
  54164.849     3.361E-21
  54164.919     3.328E-21
  54164.989     3.223E-21
  54165.060     3.075E-21
  54165.130     2.934E-21
  54165.200     2.767E-21
  54165.270     2.588E-21
  54165.340     2.458E-21
  54165.410     2.376E-21
  54165.481     2.340E-21
  54165.551     2.314E-21
  54165.621     2.253E-21
  54165.691     2.208E-21
  54165.761     2.145E-21
  54165.831     2.073E-21
  54165.902     2.065E-21
  54165.972     2.069E-21
  54166.042     2.087E-21
  54166.112     2.088E-21
  54166.182     2.102E-21
  54166.253     2.087E-21
  54166.323     2.063E-21
  54166.393     2.055E-21
  54166.463     2.055E-21
  54166.533     2.063E-21
  54166.603     2.096E-21
  54166.674     2.204E-21
  54166.744     2.279E-21
  54166.814     2.356E-21
  54166.884     2.448E-21
  54166.954     2.492E-21
  54167.024     2.564E-21
  54167.095     2.586E-21
  54167.165     2.552E-21
  54167.235     2.515E-21
  54167.305     2.439E-21
  54167.375     2.342E-21
  54167.446     2.268E-21
  54167.516     2.179E-21
  54167.586     2.094E-21
  54167.656     2.064E-21
  54167.726     2.072E-21
  54167.796     2.097E-21
  54167.867     2.171E-21
  54167.937     2.228E-21
  54168.007     2.288E-21
  54168.077     2.323E-21
  54168.147     2.314E-21
  54168.217     2.248E-21
  54168.288     2.203E-21
  54168.358     2.107E-21
  54168.428     2.009E-21
  54168.498     1.912E-21
  54168.568     1.826E-21
  54168.639     1.730E-21
  54168.709     1.681E-21
  54168.779     1.653E-21
  54168.849     1.590E-21
  54168.919     1.565E-21
  54168.989     1.561E-21
  54169.060     1.548E-21
  54169.130     1.491E-21
  54169.200     1.471E-21
  54169.270     1.451E-21
  54169.340     1.430E-21
  54169.410     1.460E-21
  54169.481     1.462E-21
  54169.551     1.443E-21
  54169.621     1.404E-21
  54169.691     1.418E-21
  54169.761     1.465E-21
  54169.832     1.491E-21
  54169.902     1.459E-21
  54169.972     1.411E-21
  54170.042     1.356E-21
  54170.112     1.326E-21
  54170.182     1.389E-21
  54170.253     1.453E-21
  54170.323     1.503E-21
  54170.393     1.530E-21
  54170.463     1.549E-21
  54170.533     1.568E-21
  54170.603     1.553E-21
  54170.674     1.590E-21
  54170.744     1.695E-21
  54170.814     1.778E-21
  54170.884     1.887E-21
  54170.954     2.044E-21
  54171.025     2.255E-21
  54171.095     2.609E-21
  54171.165     2.880E-21
  54171.235     3.096E-21
  54171.305     3.368E-21
  54171.375     3.588E-21
  54171.446     3.803E-21
  54171.516     3.934E-21
  54171.586     3.984E-21
  54171.656     3.896E-21
  54171.726     3.803E-21
  54171.796     3.756E-21
  54171.867     3.766E-21
  54171.937     3.756E-21
  54172.007     3.817E-21
  54172.077     3.987E-21
  54172.147     4.096E-21
  54172.218     4.230E-21
  54172.288     4.337E-21
  54172.358     4.320E-21
  54172.428     4.313E-21
  54172.498     4.197E-21
  54172.568     3.997E-21
  54172.639     3.678E-21
  54172.709     3.361E-21
  54172.779     3.084E-21
  54172.849     2.787E-21
  54172.919     2.505E-21
  54172.989     2.271E-21
  54173.060     2.076E-21
  54173.130     1.934E-21
  54173.200     1.835E-21
  54173.270     1.765E-21
  54173.340     1.728E-21
  54173.411     1.655E-21
  54173.481     1.568E-21
  54173.551     1.549E-21
  54173.620     1.540E-21
  54173.689     1.573E-21
  54173.759     1.609E-21
  54173.829     1.673E-21
  54173.898     1.698E-21
  54173.968     1.697E-21
  54174.037     1.658E-21
  54174.106     1.587E-21
  54174.176     1.524E-21
  54174.246     1.428E-21
  54174.315     1.341E-21
  54174.384     1.301E-21
  54174.454     1.238E-21
  54174.523     1.198E-21
  54174.594     1.176E-21
  54174.663     1.146E-21
  54174.733     1.123E-21
  54174.802     1.106E-21
  54174.872     1.106E-21
  54174.941     1.098E-21
  54175.011     1.105E-21
  54175.081     1.112E-21
  54175.151     1.112E-21
  54175.221     1.118E-21
  54175.290     1.136E-21
  54175.360     1.145E-21
  54175.430     1.146E-21
  54175.500     1.145E-21
  54175.569     1.139E-21
  54175.639     1.130E-21
  54175.709     1.111E-21
  54175.779     1.093E-21
  54175.849     1.074E-21
  54175.919     1.052E-21
  54176.059     1.008E-21
  54176.130     9.886E-22
  54176.200     9.744E-22
  54176.271     9.622E-22
  54176.341     9.511E-22
  54176.411     9.456E-22
  54176.482     9.442E-22
  54176.552     9.436E-22
  54176.623     9.434E-22
  54176.693     9.388E-22
  54176.765     9.260E-22
  54176.835     9.106E-22
  54176.906     8.987E-22
  54176.976     8.880E-22
  54177.047     8.779E-22
  54177.118     8.682E-22
  54177.188     8.589E-22
  54177.259     8.494E-22
  54177.329     8.390E-22
  54177.400     8.257E-22
  54177.470     8.086E-22
  54177.541     7.895E-22
  54177.612     7.714E-22
  54177.682     7.589E-22
  54177.753     7.504E-22
  54177.823     7.439E-22
  54177.895     7.359E-22
  54177.965     7.274E-22
  54178.035     7.183E-22
  54178.106     7.120E-22
  54178.176     7.080E-22
  54178.247     7.064E-22
  54178.317     7.038E-22
  54178.388     6.990E-22
  54178.458     6.940E-22
  54178.528     6.877E-22
  54178.599     6.790E-22
  54178.669     6.701E-22
  54178.740     6.635E-22
  54178.810     6.580E-22
  54178.881     6.543E-22
  54178.951     6.520E-22
  54179.021     6.505E-22
  54179.092     6.482E-22
  54179.162     6.453E-22
  54179.233     6.423E-22
  54179.303     6.373E-22
  54179.374     6.312E-22
  54179.444     6.241E-22
  54179.514     6.179E-22
  54179.585     6.128E-22
  54179.655     6.069E-22
  54179.726     6.001E-22
  54179.796     5.928E-22
  54179.866     5.898E-22
  54179.937     5.903E-22
  54180.007     5.900E-22
  54180.078     5.900E-22
  54180.148     5.885E-22
  54180.219     5.861E-22
  54180.289     5.842E-22
  54180.359     5.792E-22
  54180.430     5.733E-22
  54180.500     5.709E-22
  54180.571     5.677E-22
  54180.641     5.664E-22
  54180.712     5.665E-22
  54180.782     5.656E-22
  54180.852     5.640E-22
  54180.923     5.625E-22
  54180.993     5.618E-22
  54181.064     5.618E-22
  54181.134     5.597E-22
  54181.205     5.589E-22
  54181.275     5.580E-22
  54181.345     5.575E-22
  54181.416     5.564E-22
  54181.486     5.557E-22
  54181.557     5.530E-22
  54181.627     5.488E-22
  54181.698     5.423E-22
  54181.768     5.349E-22
  54181.839     5.295E-22
  54181.909     5.265E-22
  54181.979     5.257E-22
  54182.050     5.236E-22
  54182.120     5.210E-22
  54182.191     5.187E-22
  54182.261     5.181E-22
  54182.332     5.169E-22
  54182.402     5.150E-22
  54182.472     5.142E-22
  54182.543     5.132E-22
  54182.613     5.116E-22
  54182.684     5.098E-22
  54182.754     5.079E-22
  54182.825     5.057E-22
  54182.895     5.041E-22
  54182.965     5.043E-22
  54183.036     5.066E-22
  54183.106     5.101E-22
  54183.177     5.129E-22
  54183.247     5.134E-22
  54183.318     5.118E-22
  54183.388     5.088E-22
  54183.458     5.038E-22
  54183.529     4.997E-22
  54183.599     4.964E-22
  54183.670     4.936E-22
  54183.740     4.943E-22
  54183.811     4.952E-22
  54183.881     4.950E-22
  54183.951     4.966E-22
  54184.022     4.979E-22
  54184.092     4.972E-22
  54184.163     4.960E-22
  54184.233     4.952E-22
  54184.304     4.951E-22
  54184.374     4.951E-22
  54184.445     4.949E-22
  54184.515     4.952E-22
  54184.585     4.962E-22
  54184.656     4.967E-22
  54184.726     4.979E-22
  54184.797     4.987E-22
  54184.867     4.970E-22
  54184.938     4.951E-22
  54185.008     4.941E-22
  54185.078     4.935E-22
  54185.149     4.931E-22
  54185.219     4.942E-22
  54185.290     4.975E-22
  54185.360     5.012E-22
  54185.431     5.051E-22
  54185.501     5.101E-22
  54185.572     5.153E-22
  54185.642     5.203E-22
  54185.712     5.262E-22
  54185.783     5.346E-22
  54185.853     5.474E-22
  54185.924     5.634E-22
  54185.994     5.826E-22
  54186.065     6.058E-22
  54186.135     6.326E-22
  54186.207     6.614E-22
  54186.280     6.886E-22
  54186.352     7.078E-22
  54186.425     7.213E-22
  54186.497     7.211E-22
  54186.569     7.188E-22
  54186.641     7.134E-22
  54186.713     7.065E-22
  54186.786     7.203E-22
  54186.858     7.336E-22
  54186.930     7.580E-22
  54187.001     7.742E-22
  54187.073     8.052E-22
  54187.145     8.567E-22
  54187.216     9.052E-22
  54187.286     9.478E-22
  54187.356     1.018E-21
  54187.426     1.102E-21
  54187.496     1.187E-21
  54187.567     1.312E-21
  54187.637     1.473E-21
  54187.707     1.655E-21
  54187.777     1.851E-21
  54187.847     2.117E-21
  54187.917     2.429E-21
  54187.988     2.790E-21
  54188.058     3.046E-21
  54188.128     3.242E-21
  54188.198     3.402E-21
  54188.268     3.438E-21
  54188.338     3.390E-21
  54188.409     3.249E-21
  54188.479     3.134E-21
  54188.549     3.085E-21
  54188.619     3.070E-21
  54188.689     3.073E-21
  54188.760     3.169E-21
  54188.830     3.276E-21
  54188.900     3.388E-21
  54188.970     3.571E-21
  54189.040     3.770E-21
  54189.110     3.880E-21
  54189.181     4.027E-21
  54189.251     4.035E-21
  54189.321     4.023E-21
  54189.391     3.817E-21
  54189.461     3.520E-21
  54189.531     3.264E-21
  54189.602     2.969E-21
  54189.672     2.692E-21
  54189.742     2.384E-21
  54189.812     2.125E-21
  54189.882     1.903E-21
  54189.953     1.687E-21
  54190.023     1.514E-21
  54190.093     1.375E-21
  54190.163     1.273E-21
  54190.233     1.159E-21
  54190.303     1.059E-21
  54190.374     9.656E-22
  54190.444     9.146E-22
  54190.513     8.744E-22
  54190.582     8.248E-22
  54190.652     7.890E-22
  54190.721     7.735E-22
  54190.791     7.650E-22
  54190.861     7.632E-22
  54190.930     7.537E-22
  54191.000     7.398E-22
  54191.069     7.225E-22
  54191.139     6.997E-22
  54191.209     6.643E-22
  54191.278     6.255E-22
  54191.349     5.921E-22
  54191.418     5.632E-22
  54191.489     5.445E-22
  54191.559     5.306E-22
  54191.630     5.207E-22
  54191.700     5.131E-22
  54191.770     5.074E-22
  54191.841     5.025E-22
  54191.911     4.975E-22
  54191.982     4.934E-22
  54192.052     4.899E-22
  54192.123     4.865E-22
  54192.193     4.839E-22
  54192.264     4.817E-22
  54192.334     4.793E-22
  54192.405     4.758E-22
  54192.475     4.720E-22
  54192.545     4.691E-22
  54192.616     4.672E-22
  54192.686     4.672E-22
  54192.757     4.687E-22
  54192.827     4.702E-22
  54192.898     4.730E-22
  54192.968     4.767E-22
  54193.039     4.802E-22
  54193.109     4.839E-22
  54193.179     4.898E-22
  54193.250     4.990E-22
  54193.320     5.101E-22
  54193.391     5.225E-22
  54193.461     5.347E-22
  54193.532     5.467E-22
  54193.602     5.573E-22
  54193.673     5.642E-22
  54193.743     5.670E-22
  54193.814     5.663E-22
  54193.884     5.630E-22
  54193.954     5.577E-22
  54194.025     5.523E-22
  54194.095     5.470E-22
  54194.166     5.413E-22
  54194.236     5.365E-22
  54194.307     5.318E-22
  54194.377     5.320E-22
  54194.447     5.329E-22
  54194.517     5.379E-22
  54194.588     5.405E-22
  54194.657     5.413E-22
  54194.727     5.494E-22
  54194.798     5.565E-22
  54194.867     5.621E-22
  54194.937     5.601E-22
  54195.007     5.722E-22
  54195.077     5.920E-22
  54195.147     6.119E-22
  54195.217     6.473E-22
  54195.286     6.890E-22
  54195.356     7.225E-22
  54195.426     7.795E-22
  54195.496     8.497E-22
  54195.567     9.504E-22
  54195.637     1.099E-21
  54195.707     1.232E-21
  54195.777     1.401E-21
  54195.847     1.612E-21
  54195.918     1.830E-21
  54195.988     2.058E-21
  54196.058     2.286E-21
  54196.128     2.538E-21
  54196.198     2.743E-21
  54196.268     2.935E-21
  54196.339     3.010E-21
  54196.409     3.006E-21
  54196.479     2.954E-21
  54196.549     2.937E-21
  54196.619     2.890E-21
  54196.689     2.872E-21
  54196.760     2.930E-21
  54196.830     3.072E-21
  54196.900     3.149E-21
  54196.970     3.220E-21
  54197.040     3.267E-21
  54197.111     3.220E-21
  54197.181     3.109E-21
  54197.251     2.904E-21
  54197.321     2.618E-21
  54197.391     2.312E-21
  54197.461     2.059E-21
  54197.532     1.814E-21
  54197.602     1.590E-21
  54197.672     1.350E-21
  54197.742     1.178E-21
  54197.812     1.048E-21
  54197.883     9.267E-22
  54197.955     8.355E-22
  54198.027     7.720E-22
  54198.098     7.172E-22
  54198.170     6.823E-22
  54198.241     6.704E-22
  54198.314     6.515E-22
  54198.385     6.431E-22
  54198.457     6.388E-22
  54198.528     6.398E-22
  54198.601     6.348E-22
  54198.672     6.302E-22
  54198.744     6.226E-22
  54198.816     6.079E-22
  54198.886     5.960E-22
  54198.957     5.809E-22
  54199.027     5.647E-22
  54199.098     5.487E-22
  54199.168     5.343E-22
  54199.239     5.190E-22
  54199.309     5.032E-22
  54199.380     4.889E-22
  54199.450     4.752E-22
  54199.521     4.639E-22
  54199.591     4.540E-22
  54199.662     4.448E-22
  54199.732     4.381E-22
  54199.802     4.335E-22
  54199.873     4.312E-22
  54199.943     4.301E-22
  54200.014     4.297E-22
  54200.084     4.299E-22
  54200.155     4.297E-22
  54200.225     4.295E-22
  54200.296     4.305E-22
  54200.366     4.334E-22
  54200.437     4.377E-22
  54200.507     4.431E-22
  54200.578     4.482E-22
  54200.648     4.530E-22
  54200.718     4.576E-22
  54200.789     4.611E-22
  54200.859     4.659E-22
  54200.930     4.719E-22
  54201.071     4.845E-22
  54201.139     4.934E-22
  54201.208     5.023E-22
  54201.275     5.096E-22
  54201.344     5.177E-22
  54201.412     5.310E-22
  54201.480     5.493E-22
  54201.548     5.749E-22
  54201.616     5.980E-22
  54201.684     6.018E-22
  54201.751     6.204E-22
  54201.819     6.607E-22
  54201.888     7.178E-22
  54201.955     7.924E-22
  54202.023     8.901E-22
  54202.093     1.025E-21
  54202.163     1.160E-21
  54202.233     1.339E-21
  54202.304     1.510E-21
  54202.374     1.679E-21
  54202.444     1.806E-21
  54202.514     1.860E-21
  54202.584     1.838E-21
  54202.654     1.745E-21
  54202.725     1.613E-21
  54202.795     1.452E-21
  54202.865     1.315E-21
  54202.935     1.205E-21
  54203.005     1.134E-21
  54203.076     1.099E-21
  54203.146     1.095E-21
  54203.216     1.099E-21
  54203.286     1.141E-21
  54203.356     1.179E-21
  54203.426     1.230E-21
  54203.497     1.286E-21
  54203.567     1.365E-21
  54203.637     1.435E-21
  54203.707     1.467E-21
  54203.777     1.510E-21
  54203.848     1.560E-21
  54203.918     1.593E-21
  54203.988     1.616E-21
  54204.058     1.650E-21
  54204.128     1.687E-21
  54204.198     1.745E-21
  54204.269     1.795E-21
  54204.339     1.856E-21
  54204.409     1.907E-21
  54204.479     1.911E-21
  54204.549     1.858E-21
  54204.619     1.785E-21
  54204.690     1.692E-21
  54204.760     1.589E-21
  54204.830     1.454E-21
  54204.900     1.343E-21
  54204.970     1.248E-21
  54205.041     1.158E-21
  54205.111     1.080E-21
  54205.181     1.027E-21
  54205.251     9.925E-22
  54205.321     9.282E-22
  54205.391     8.601E-22
  54205.462     7.987E-22
  54205.532     7.720E-22
  54205.602     7.413E-22
  54205.672     7.383E-22
  54205.742     7.157E-22
  54205.812     6.886E-22
  54205.883     6.735E-22
  54205.953     6.700E-22
  54206.023     6.657E-22
  54206.093     6.659E-22
  54206.163     6.788E-22
  54206.234     6.952E-22
  54206.304     7.248E-22
  54206.374     7.695E-22
  54206.444     8.227E-22
  54206.514     9.125E-22
  54206.584     1.008E-21
  54206.655     1.095E-21
  54206.725     1.195E-21
  54206.795     1.289E-21
  54206.865     1.334E-21
  54206.935     1.340E-21
  54207.005     1.316E-21
  54207.076     1.271E-21
  54207.146     1.207E-21
  54207.216     1.162E-21
  54207.286     1.134E-21
  54207.356     1.118E-21
  54207.427     1.137E-21
  54207.497     1.182E-21
  54207.567     1.255E-21
  54207.637     1.351E-21
  54207.707     1.451E-21
  54207.777     1.584E-21
  54207.848     1.743E-21
  54207.918     1.924E-21
  54207.988     2.155E-21
  54208.058     2.465E-21
  54208.128     2.773E-21
  54208.198     3.088E-21
  54208.269     3.361E-21
  54208.339     3.531E-21
  54208.409     3.675E-21
  54208.479     3.705E-21
  54208.549     3.658E-21
  54208.620     3.569E-21
  54208.690     3.442E-21
  54208.760     3.291E-21
  54208.830     3.212E-21
  54208.900     3.197E-21
  54208.970     3.251E-21
  54209.041     3.349E-21
  54209.111     3.493E-21
  54209.181     3.616E-21
  54209.251     3.700E-21
  54209.321     3.769E-21
  54209.391     3.788E-21
  54209.462     3.640E-21
  54209.532     3.478E-21
  54209.602     3.304E-21
  54209.672     3.085E-21
  54209.742     2.835E-21
  54209.813     2.487E-21
  54209.883     2.192E-21
  54209.953     1.961E-21
  54210.023     1.747E-21
  54210.093     1.560E-21
  54210.163     1.418E-21
  54210.234     1.309E-21
  54210.304     1.225E-21
  54210.374     1.147E-21
  54210.444     1.084E-21
  54210.514     1.037E-21
  54210.584     9.871E-22
  54210.655     9.304E-22
  54210.725     9.010E-22
  54210.795     8.613E-22
  54210.866     8.306E-22
  54210.936     8.156E-22
  54211.007     7.996E-22
  54211.077     7.892E-22
  54211.148     7.705E-22
  54211.218     7.471E-22
  54211.289     7.247E-22
  54211.359     7.016E-22
  54211.431     6.823E-22
  54211.501     6.676E-22
  54211.572     6.593E-22
  54211.642     6.520E-22
  54211.713     6.481E-22
  54211.783     6.464E-22
  54211.853     6.461E-22
  54211.924     6.437E-22
  54211.994     6.395E-22
  54212.065     6.341E-22
  54212.135     6.281E-22
  54212.206     6.282E-22
  54212.275     6.315E-22
  54212.345     6.387E-22
  54212.415     6.444E-22
  54212.485     6.528E-22
  54212.554     6.513E-22
  54212.624     6.499E-22
  54212.694     6.632E-22
  54212.764     6.859E-22
  54212.833     7.096E-22
  54212.902     7.463E-22
  54212.972     8.068E-22
  54213.042     8.558E-22
  54213.111     9.080E-22
  54213.181     9.646E-22
  54213.251     1.022E-21
  54213.321     1.110E-21
  54213.392     1.216E-21
  54213.462     1.377E-21
  54213.532     1.569E-21
  54213.602     1.772E-21
  54213.672     1.951E-21
  54213.742     2.099E-21
  54213.813     2.217E-21
  54213.883     2.306E-21
  54213.953     2.384E-21
  54214.023     2.338E-21
  54214.093     2.288E-21
  54214.163     2.231E-21
  54214.234     2.169E-21
  54214.304     2.151E-21
  54214.374     2.148E-21
  54214.444     2.164E-21
  54214.514     2.202E-21
  54214.585     2.188E-21
  54214.655     2.200E-21
  54214.725     2.197E-21
  54214.795     2.154E-21
  54214.865     2.099E-21
  54214.935     2.034E-21
  54215.006     1.973E-21
  54215.076     1.905E-21
  54215.146     1.877E-21
  54215.216     1.807E-21
  54215.286     1.736E-21
  54215.356     1.639E-21
  54215.427     1.580E-21
  54215.497     1.535E-21
  54215.567     1.482E-21
  54215.637     1.417E-21
  54215.707     1.385E-21
  54215.778     1.368E-21
  54215.848     1.352E-21
  54215.918     1.355E-21
  54215.988     1.369E-21
  54216.058     1.396E-21
  54216.128     1.415E-21
  54216.199     1.466E-21
  54216.269     1.532E-21
  54216.339     1.585E-21
  54216.409     1.617E-21
  54216.479     1.702E-21
  54216.549     1.791E-21
  54216.620     1.861E-21
  54216.690     1.930E-21
  54216.760     2.014E-21
  54216.830     2.115E-21
  54216.900     2.234E-21
  54216.971     2.321E-21
  54217.041     2.414E-21
  54217.111     2.581E-21
  54217.184     2.983E-21
  54217.317     3.542E-21
  54217.390     3.919E-21
  54217.464     4.430E-21
  54217.541     5.200E-21
  54217.620     6.341E-21
  54217.732     8.274E-21
  54217.811     1.046E-20
  54217.892     1.291E-20
  54218.001     1.521E-20
  54218.083     1.638E-20
  54218.152     1.712E-20
  54218.253     1.747E-20
  54218.338     1.765E-20
  54218.424     1.743E-20
  54218.509     1.701E-20
  54218.595     1.660E-20
  54218.680     1.632E-20
  54218.765     1.600E-20
  54218.851     1.555E-20
  54218.920     1.525E-20
  54219.022     1.524E-20
  54219.091     1.524E-20
  54219.192     1.511E-20
  54219.278     1.508E-20
  54219.362     1.502E-20
  54219.431     1.453E-20
  54219.524     1.362E-20
  54219.590     1.279E-20
  54219.697     1.202E-20
  54219.776     1.127E-20
  54219.852     1.071E-20
  54219.925     1.025E-20
  54220.053     9.357E-21
  54220.127     8.810E-21
  54220.269     7.851E-21
  54220.339     7.386E-21
  54220.409     6.869E-21
  54220.479     6.435E-21
  54220.550     6.096E-21
  54220.620     5.684E-21
  54220.690     5.314E-21
  54220.760     5.051E-21
  54220.830     4.858E-21
  54220.900     4.592E-21
  54220.971     4.348E-21
  54221.041     4.242E-21
  54221.111     4.210E-21
  54221.181     4.190E-21
  54221.251     4.149E-21
  54221.321     4.216E-21
  54221.392     4.261E-21
  54221.462     4.366E-21
  54221.532     4.502E-21
  54221.602     4.503E-21
  54221.672     4.406E-21
  54221.743     4.400E-21
  54221.813     4.338E-21
  54221.883     4.190E-21
  54221.953     4.045E-21
  54222.023     3.936E-21
  54222.093     3.832E-21
  54222.164     3.833E-21
  54222.234     3.920E-21
  54222.304     3.921E-21
  54222.374     3.857E-21
  54222.444     3.849E-21
  54222.514     3.849E-21
  54222.585     3.765E-21
  54222.655     3.615E-21
  54222.725     3.481E-21
  54222.795     3.265E-21
  54222.865     3.032E-21
  54222.936     2.812E-21
  54223.006     2.551E-21
  54223.076     2.316E-21
  54223.146     2.114E-21
  54223.216     1.948E-21
  54223.286     1.821E-21
  54223.357     1.691E-21
  54223.427     1.596E-21
  54223.497     1.516E-21
  54223.567     1.441E-21
  54223.637     1.389E-21
  54223.707     1.380E-21
  54223.778     1.353E-21
  54223.848     1.355E-21
  54223.918     1.388E-21
  54223.988     1.394E-21
  54224.058     1.418E-21
  54224.129     1.466E-21
  54224.199     1.523E-21
  54224.269     1.575E-21
  54224.339     1.627E-21
  54224.409     1.659E-21
  54224.479     1.662E-21
  54224.550     1.651E-21
  54224.620     1.586E-21
  54224.690     1.517E-21
  54224.760     1.467E-21
  54224.830     1.380E-21
  54224.900     1.297E-21
  54224.971     1.233E-21
  54225.041     1.183E-21
  54225.111     1.122E-21
  54225.181     1.085E-21
  54225.251     1.051E-21
  54225.322     1.027E-21
  54225.392     1.007E-21
  54225.462     9.831E-22
  54225.532     9.761E-22
  54225.602     9.808E-22
  54225.672     9.750E-22
  54225.743     9.501E-22
  54225.813     9.575E-22
  54225.883     9.918E-22
  54225.953     1.025E-21
  54226.023     1.052E-21
  54226.093     1.086E-21
  54226.164     1.133E-21
  54226.234     1.191E-21
  54226.304     1.233E-21
  54226.374     1.275E-21
  54226.444     1.317E-21
  54226.515     1.376E-21
  54226.585     1.413E-21
  54226.655     1.449E-21
  54226.725     1.482E-21
  54226.795     1.500E-21
  54226.865     1.511E-21
  54226.936     1.544E-21
  54227.006     1.552E-21
  54227.076     1.617E-21
  54227.146     1.702E-21
  54227.216     1.756E-21
  54227.286     1.803E-21
  54227.357     1.842E-21
  54227.427     1.881E-21
  54227.497     1.946E-21
  54227.567     2.004E-21
  54227.637     2.096E-21
  54227.708     2.191E-21
  54227.778     2.281E-21
  54227.848     2.399E-21
  54227.918     2.471E-21
  54227.988     2.526E-21
  54228.058     2.519E-21
  54228.129     2.486E-21
  54228.199     2.395E-21
  54228.269     2.343E-21
  54228.339     2.307E-21
  54228.409     2.290E-21
  54228.479     2.286E-21
  54228.550     2.305E-21
  54228.620     2.345E-21
  54228.690     2.372E-21
  54228.760     2.411E-21
  54228.830     2.439E-21
  54228.901     2.486E-21
  54228.971     2.475E-21
  54229.041     2.453E-21
  54229.111     2.456E-21
  54229.181     2.459E-21
  54229.251     2.477E-21
  54229.322     2.522E-21
  54229.392     2.558E-21
  54229.532     2.726E-21
  54229.601     2.852E-21
  54229.673     3.067E-21
  54229.748     3.210E-21
  54229.826     3.440E-21
  54229.944     3.896E-21
  54230.021     4.267E-21
  54230.100     4.773E-21
  54230.182     5.402E-21
  54230.280     5.979E-21
  54230.361     6.268E-21
  54230.446     6.837E-21
  54230.531     8.171E-21
  54230.616     1.001E-20
  54230.702     1.179E-20
  54230.787     1.373E-20
  54230.889     1.632E-20
  54230.974     1.979E-20
  54231.059     2.373E-20
  54231.138     2.741E-20
  54231.224     3.052E-20
  54231.309     3.296E-20
  54231.394     3.461E-20
  54231.480     3.557E-20
  54231.565     3.597E-20
  54231.650     3.625E-20
  54231.736     3.637E-20
  54231.821     3.565E-20
  54231.906     3.370E-20
  54231.992     3.187E-20
  54232.077     3.093E-20
  54232.163     3.038E-20
  54232.254     2.950E-20
  54232.333     2.833E-20
  54232.425     2.704E-20
  54232.510     2.562E-20
  54232.596     2.390E-20
  54232.681     2.209E-20
  54232.767     2.017E-20
  54232.852     1.818E-20
  54232.921     1.635E-20
  54233.023     1.471E-20
  54233.092     1.302E-20
  54233.177     1.146E-20
  54233.263     1.031E-20
  54233.346     9.532E-21
  54233.438     8.859E-21
  54233.523     8.430E-21
  54233.603     8.097E-21
  54233.682     7.485E-21
  54233.758     6.779E-21
  54233.875     6.136E-21
  54233.951     5.732E-21
  54234.024     5.270E-21
  54234.096     4.908E-21
  54234.234     4.092E-21
  54234.304     3.632E-21
  54234.374     3.315E-21
  54234.444     3.042E-21
  54234.515     2.786E-21
  54234.585     2.655E-21
  54234.655     2.455E-21
  54234.725     2.316E-21
  54234.795     2.237E-21
  54234.866     2.163E-21
  54234.936     2.082E-21
  54235.006     2.018E-21
  54235.076     1.980E-21
  54235.146     1.948E-21
  54235.216     1.900E-21
  54235.287     1.892E-21
  54235.357     1.874E-21
  54235.427     1.895E-21
  54235.497     1.959E-21
  54235.567     2.054E-21
  54235.637     2.162E-21
  54235.708     2.297E-21
  54235.778     2.402E-21
  54235.848     2.531E-21
  54235.918     2.663E-21
  54235.988     2.549E-21
  54236.059     2.395E-21
  54236.129     2.229E-21
  54236.199     2.050E-21
  54236.269     1.899E-21
  54236.339     1.798E-21
  54236.409     1.741E-21
  54236.480     1.716E-21
  54236.550     1.746E-21
  54236.620     1.776E-21
  54236.690     1.803E-21
  54236.760     1.823E-21
  54236.830     1.823E-21
  54236.901     1.773E-21
  54236.971     1.677E-21
  54237.041     1.588E-21
  54237.111     1.447E-21
  54237.181     1.313E-21
  54237.252     1.184E-21
  54237.322     1.076E-21
  54237.392     9.881E-22
  54237.462     9.252E-22
  54237.532     8.718E-22
  54237.601     8.248E-22
  54237.671     7.875E-22
  54237.740     7.651E-22
  54237.810     7.301E-22
  54237.879     7.154E-22
  54237.948     6.982E-22
  54238.017     6.761E-22
  54238.088     6.549E-22
  54238.157     6.385E-22
  54238.227     6.196E-22
  54238.296     6.011E-22
  54238.366     5.873E-22
  54238.436     5.756E-22
  54238.506     5.641E-22
  54238.576     5.567E-22
  54238.647     5.515E-22
  54238.717     5.474E-22
  54238.788     5.445E-22
  54238.859     5.443E-22
  54238.929     5.456E-22
  54239.000     5.480E-22
  54239.070     5.515E-22
  54239.141     5.547E-22
  54239.211     5.565E-22
  54239.282     5.569E-22
  54239.352     5.564E-22
  54239.423     5.550E-22
  54239.493     5.558E-22
  54239.564     5.597E-22
  54239.634     5.662E-22
  54239.705     5.748E-22
  54239.775     5.887E-22
  54239.846     6.079E-22
  54239.917     6.314E-22
  54239.987     6.558E-22
  54240.058     6.742E-22
  54240.128     6.810E-22
  54240.199     6.745E-22
  54240.269     6.537E-22
  54240.340     6.232E-22
  54240.410     5.896E-22
  54240.481     5.561E-22
  54240.551     5.234E-22
  54240.622     4.940E-22
  54240.692     4.693E-22
  54240.763     4.491E-22
  54240.834     4.328E-22
  54240.904     4.201E-22
  54240.975     4.099E-22
  54241.045     4.020E-22
  54241.116     3.963E-22
  54241.186     3.929E-22
  54241.257     3.905E-22
  54241.327     3.875E-22
  54241.398     3.852E-22
  54241.468     3.839E-22
  54241.539     3.843E-22
  54241.609     3.873E-22
  54241.680     3.941E-22
  54241.751     4.059E-22
  54241.821     4.219E-22
  54241.892     4.413E-22
  54241.962     4.608E-22
  54242.033     4.787E-22
  54242.103     4.956E-22
  54242.174     5.076E-22
  54242.244     5.092E-22
  54242.315     4.992E-22
  54242.385     4.805E-22
  54242.456     4.553E-22
  54242.526     4.281E-22
  54242.597     4.017E-22
  54242.668     3.774E-22
  54242.738     3.571E-22
  54242.809     3.415E-22
  54242.879     3.298E-22
  54242.950     3.220E-22
  54243.020     3.169E-22
  54243.091     3.124E-22
  54243.161     3.071E-22
  54243.232     3.010E-22
  54243.302     2.948E-22
  54243.373     2.896E-22
  54243.443     2.864E-22
  54243.514     2.844E-22
  54243.585     2.826E-22
  54243.655     2.802E-22
  54243.726     2.773E-22
  54243.796     2.744E-22
  54243.867     2.720E-22
  54243.937     2.701E-22
  54244.008     2.688E-22
  54244.078     2.682E-22
  54244.149     2.679E-22
  54244.219     2.674E-22
  54244.290     2.666E-22
  54244.361     2.657E-22
  54244.431     2.639E-22
  54244.502     2.615E-22
  54244.572     2.598E-22
  54244.643     2.593E-22
  54244.713     2.585E-22
  54244.784     2.564E-22
  54244.854     2.538E-22
  54244.925     2.516E-22
  54244.995     2.501E-22
  54245.066     2.493E-22
  54245.137     2.494E-22
  54245.207     2.503E-22
  54245.278     2.514E-22
  54245.348     2.509E-22
  54245.419     2.496E-22
  54245.489     2.483E-22
  54245.560     2.465E-22
  54245.630     2.449E-22
  54245.701     2.437E-22
  54245.771     2.427E-22
  54245.842     2.414E-22
  54245.913     2.403E-22
  54245.983     2.396E-22
  54246.054     2.398E-22
  54246.124     2.407E-22
  54246.195     2.415E-22
  54246.265     2.424E-22
  54246.336     2.430E-22
  54246.406     2.433E-22
  54246.477     2.431E-22
  54246.547     2.433E-22
  54246.618     2.438E-22
  54246.689     2.439E-22
  54246.759     2.438E-22
  54246.830     2.436E-22
  54246.900     2.428E-22
  54246.971     2.420E-22
  54247.041     2.413E-22
  54247.112     2.404E-22
  54247.182     2.397E-22
  54247.253     2.399E-22
  54247.323     2.402E-22
  54247.394     2.403E-22
  54247.465     2.398E-22
  54247.535     2.396E-22
  54247.606     2.399E-22
  54247.676     2.408E-22
  54247.747     2.426E-22
  54247.817     2.454E-22
  54247.888     2.487E-22
  54247.958     2.517E-22
  54248.029     2.545E-22
  54248.100     2.581E-22
  54248.170     2.627E-22
  54248.241     2.684E-22
  54248.311     2.753E-22
  54248.382     2.840E-22
  54248.452     2.956E-22
  54248.523     3.088E-22
  54248.593     3.214E-22
  54248.664     3.313E-22
  54248.734     3.379E-22
  54248.805     3.409E-22
  54248.876     3.400E-22
  54248.946     3.363E-22
  54249.017     3.301E-22
  54249.087     3.231E-22
  54249.158     3.166E-22
  54249.228     3.102E-22
  54249.299     3.042E-22
  54249.369     2.988E-22
  54249.440     2.942E-22
  54249.511     2.899E-22
  54249.581     2.854E-22
  54249.652     2.806E-22
  54249.722     2.758E-22
  54249.793     2.712E-22
  54249.863     2.660E-22
  54249.934     2.604E-22
  54250.004     2.549E-22
  54250.075     2.486E-22
  54250.146     2.417E-22
  54250.216     2.355E-22
  54250.287     2.304E-22
  54250.357     2.258E-22
  54250.428     2.209E-22
  54250.498     2.164E-22
  54250.569     2.128E-22
  54250.639     2.105E-22
  54250.710     2.096E-22
  54250.781     2.086E-22
  54250.851     2.078E-22
  54250.922     2.072E-22
  54250.992     2.057E-22
  54251.063     2.042E-22
  54251.133     2.031E-22
  54251.204     2.028E-22
  54251.274     2.025E-22
  54251.345     2.017E-22
  54251.416     2.004E-22
  54251.486     1.987E-22
  54251.557     1.971E-22
  54251.627     1.963E-22
  54251.698     1.956E-22
  54251.768     1.944E-22
  54251.839     1.926E-22
  54251.909     1.913E-22
  54251.980     1.906E-22
  54252.051     1.904E-22
  54252.121     1.913E-22
  54252.192     1.926E-22
  54252.262     1.939E-22
  54252.333     1.951E-22
  54252.403     1.965E-22
  54252.474     1.985E-22
  54252.544     2.010E-22
  54252.615     2.035E-22
  54252.686     2.060E-22
  54252.756     2.082E-22
  54252.827     2.101E-22
  54252.897     2.112E-22
  54252.968     2.111E-22
  54253.038     2.100E-22
  54253.109     2.083E-22
  54253.179     2.061E-22
  54253.250     2.034E-22
  54253.321     2.002E-22
  54253.391     1.972E-22
  54253.462     1.953E-22
  54253.532     1.947E-22
  54253.603     1.942E-22
  54253.673     1.936E-22
  54253.744     1.935E-22
  54253.815     1.936E-22
  54253.885     1.938E-22
  54253.956     1.941E-22
  54254.026     1.956E-22
  54254.097     1.992E-22
  54254.167     2.041E-22
  54254.238     2.104E-22
  54254.308     2.180E-22
  54254.379     2.251E-22
  54254.450     2.309E-22
  54254.520     2.338E-22
  54254.591     2.325E-22
  54254.661     2.268E-22
  54254.732     2.182E-22
  54254.802     2.086E-22
  54254.873     1.994E-22
  54254.944     1.919E-22
  54255.014     1.867E-22
  54255.085     1.831E-22
  54255.155     1.816E-22
  54255.226     1.817E-22
  54255.296     1.816E-22
  54255.367     1.815E-22
  54255.437     1.814E-22
  54255.508     1.813E-22
  54255.579     1.813E-22
  54255.649     1.806E-22
  54255.720     1.796E-22
  54255.790     1.787E-22
  54255.861     1.772E-22
  54255.931     1.752E-22
  54256.002     1.741E-22
  54256.073     1.744E-22
  54256.143     1.755E-22
  54256.214     1.778E-22
  54256.284     1.800E-22
  54256.355     1.813E-22
  54256.425     1.810E-22
  54256.496     1.807E-22
  54256.566     1.812E-22
  54256.637     1.821E-22
  54256.708     1.836E-22
  54256.778     1.857E-22
  54256.849     1.875E-22
  54256.919     1.897E-22
  54256.990     1.930E-22
  54257.060     1.968E-22
  54257.131     2.008E-22
  54257.202     2.048E-22
  54257.272     2.086E-22
  54257.343     2.108E-22
  54257.413     2.112E-22
  54257.484     2.104E-22
  54257.554     2.085E-22
  54257.625     2.054E-22
  54257.696     2.017E-22
  54257.766     1.987E-22
  54257.837     1.968E-22
  54257.907     1.955E-22
  54257.978     1.952E-22
  54258.048     1.940E-22
  54258.119     1.929E-22
  54258.190     1.914E-22
  54258.260     1.896E-22
  54258.331     1.877E-22
  54258.401     1.855E-22
  54258.472     1.840E-22
  54258.542     1.834E-22
  54258.613     1.838E-22
  54258.684     1.839E-22
  54258.754     1.833E-22
  54258.825     1.820E-22
  54258.895     1.807E-22
  54258.966     1.795E-22
  54259.036     1.777E-22
  54259.107     1.759E-22
  54259.178     1.743E-22
  54259.248     1.733E-22
  54259.319     1.729E-22
  54259.389     1.730E-22
  54259.460     1.728E-22
  54259.530     1.728E-22
  54259.601     1.730E-22
  54259.672     1.729E-22
  54259.742     1.727E-22
  54259.813     1.728E-22
  54259.883     1.738E-22
  54259.954     1.760E-22
