#  O2 xsec;CfA;O2WB12X0;300 K;55485-55800 cm-1;3505 pts        
#    WNO      SIGMA
  55485.036     2.671E-21
  55485.110     2.693E-21
  55485.184     2.691E-21
  55485.257     2.669E-21
  55485.331     2.657E-21
  55485.405     2.671E-21
  55485.479     2.666E-21
  55485.553     2.638E-21
  55485.627     2.620E-21
  55485.701     2.590E-21
  55485.776     2.550E-21
  55485.850     2.559E-21
  55485.924     2.583E-21
  55485.998     2.608E-21
  55486.072     2.614E-21
  55486.146     2.612E-21
  55486.220     2.623E-21
  55486.294     2.622E-21
  55486.368     2.640E-21
  55486.441     2.665E-21
  55486.515     2.680E-21
  55486.590     2.731E-21
  55486.664     2.785E-21
  55486.738     2.857E-21
  55486.812     2.903E-21
  55486.886     2.951E-21
  55486.960     2.939E-21
  55487.034     2.912E-21
  55487.108     2.867E-21
  55487.182     2.833E-21
  55487.256     2.820E-21
  55487.330     2.848E-21
  55487.404     2.882E-21
  55487.478     2.918E-21
  55487.552     2.932E-21
  55487.626     2.983E-21
  55487.699     3.006E-21
  55487.773     2.979E-21
  55487.847     2.911E-21
  55487.921     2.839E-21
  55487.995     2.746E-21
  55488.069     2.680E-21
  55488.143     2.640E-21
  55488.217     2.595E-21
  55488.291     2.553E-21
  55488.365     2.533E-21
  55488.439     2.488E-21
  55488.513     2.463E-21
  55488.587     2.463E-21
  55488.661     2.463E-21
  55488.735     2.472E-21
  55488.809     2.502E-21
  55488.883     2.549E-21
  55488.957     2.620E-21
  55489.030     2.687E-21
  55489.104     2.754E-21
  55489.178     2.824E-21
  55489.252     2.911E-21
  55489.326     2.984E-21
  55489.400     3.038E-21
  55489.474     3.138E-21
  55489.548     3.199E-21
  55489.622     3.301E-21
  55489.696     3.353E-21
  55489.770     3.391E-21
  55489.844     3.400E-21
  55489.918     3.407E-21
  55489.992     3.406E-21
  55490.066     3.375E-21
  55490.140     3.308E-21
  55490.214     3.248E-21
  55490.288     3.218E-21
  55490.362     3.197E-21
  55490.435     3.206E-21
  55490.509     3.280E-21
  55490.583     3.357E-21
  55490.657     3.429E-21
  55490.731     3.531E-21
  55490.805     3.646E-21
  55490.879     3.772E-21
  55490.953     3.919E-21
  55491.027     3.966E-21
  55491.101     4.022E-21
  55491.175     4.160E-21
  55491.249     4.272E-21
  55491.323     4.450E-21
  55491.397     4.598E-21
  55491.471     4.718E-21
  55491.545     4.864E-21
  55491.619     4.927E-21
  55491.693     5.060E-21
  55491.767     5.091E-21
  55491.841     5.114E-21
  55491.915     5.181E-21
  55491.988     5.304E-21
  55492.062     5.330E-21
  55492.136     5.362E-21
  55492.210     5.383E-21
  55492.284     5.497E-21
  55492.358     5.613E-21
  55492.432     5.683E-21
  55492.506     5.745E-21
  55492.580     5.777E-21
  55492.654     5.820E-21
  55492.728     5.930E-21
  55492.802     6.055E-21
  55492.876     6.145E-21
  55492.950     6.280E-21
  55493.024     6.552E-21
  55493.098     6.829E-21
  55493.172     7.001E-21
  55493.246     7.285E-21
  55493.320     7.532E-21
  55493.394     7.824E-21
  55493.468     8.177E-21
  55493.542     8.543E-21
  55493.616     8.989E-21
  55493.689     9.258E-21
  55493.763     9.644E-21
  55493.837     1.010E-20
  55493.975     1.289E-20
  55494.065     1.360E-20
  55494.154     1.468E-20
  55494.244     1.656E-20
  55494.333     1.948E-20
  55494.457     2.304E-20
  55494.546     2.664E-20
  55494.636     3.068E-20
  55494.725     3.589E-20
  55494.815     4.204E-20
  55494.893     4.874E-20
  55494.982     5.619E-20
  55495.072     6.502E-20
  55495.161     7.734E-20
  55495.251     9.536E-20
  55495.347     1.182E-19
  55495.423     1.400E-19
  55495.507     1.555E-19
  55495.597     1.650E-19
  55495.686     1.675E-19
  55495.794     1.614E-19
  55495.884     1.489E-19
  55495.974     1.355E-19
  55496.063     1.235E-19
  55496.153     1.135E-19
  55496.242     1.084E-19
  55496.332     1.096E-19
  55496.425     1.169E-19
  55496.510     1.262E-19
  55496.600     1.334E-19
  55496.670     1.409E-19
  55496.760     1.506E-19
  55496.849     1.628E-19
  55496.939     1.753E-19
  55497.034     1.833E-19
  55497.137     1.863E-19
  55497.213     1.865E-19
  55497.297     1.822E-19
  55497.392     1.737E-19
  55497.495     1.648E-19
  55497.584     1.575E-19
  55497.674     1.484E-19
  55497.763     1.359E-19
  55497.853     1.227E-19
  55497.942     1.105E-19
  55498.032     9.871E-20
  55498.121     8.569E-20
  55498.204     7.240E-20
  55498.293     6.186E-20
  55498.383     5.380E-20
  55498.484     4.706E-20
  55498.562     4.143E-20
  55498.663     3.613E-20
  55498.752     3.201E-20
  55498.842     2.949E-20
  55498.931     2.757E-20
  55498.987     2.566E-20
  55499.110     2.364E-20
  55499.166     2.174E-20
  55499.255     2.039E-20
  55499.345     1.900E-20
  55499.434     1.712E-20
  55499.524     1.513E-20
  55499.613     1.378E-20
  55499.703     1.300E-20
  55499.792     1.149E-20
  55499.977     1.026E-20
  55500.051     9.972E-21
  55500.125     9.472E-21
  55500.199     9.008E-21
  55500.273     8.603E-21
  55500.347     8.245E-21
  55500.420     7.985E-21
  55500.494     7.632E-21
  55500.568     7.388E-21
  55500.642     7.094E-21
  55500.716     6.808E-21
  55500.790     6.569E-21
  55500.864     6.368E-21
  55500.938     6.095E-21
  55501.012     5.865E-21
  55501.086     5.819E-21
  55501.160     5.695E-21
  55501.234     5.536E-21
  55501.308     5.415E-21
  55501.382     5.325E-21
  55501.456     5.209E-21
  55501.530     5.102E-21
  55501.604     5.054E-21
  55501.678     5.089E-21
  55501.752     5.095E-21
  55501.826     5.145E-21
  55501.900     5.214E-21
  55501.974     5.294E-21
  55502.048     5.333E-21
  55502.122     5.283E-21
  55502.196     5.186E-21
  55502.270     5.078E-21
  55502.344     4.962E-21
  55502.418     4.760E-21
  55502.492     4.571E-21
  55502.566     4.446E-21
  55502.640     4.378E-21
  55502.714     4.344E-21
  55502.788     4.318E-21
  55502.862     4.253E-21
  55502.936     4.251E-21
  55503.010     4.172E-21
  55503.084     4.142E-21
  55503.158     4.105E-21
  55503.232     4.043E-21
  55503.306     4.006E-21
  55503.380     3.898E-21
  55503.454     3.791E-21
  55503.528     3.712E-21
  55503.602     3.631E-21
  55503.676     3.583E-21
  55503.750     3.490E-21
  55503.824     3.427E-21
  55503.898     3.316E-21
  55503.972     3.240E-21
  55504.046     3.175E-21
  55504.120     3.112E-21
  55504.194     3.015E-21
  55504.267     2.967E-21
  55504.341     2.926E-21
  55504.415     2.873E-21
  55504.489     2.829E-21
  55504.563     2.788E-21
  55504.637     2.753E-21
  55504.711     2.751E-21
  55504.785     2.714E-21
  55504.859     2.689E-21
  55504.933     2.641E-21
  55505.007     2.632E-21
  55505.081     2.663E-21
  55505.155     2.657E-21
  55505.229     2.647E-21
  55505.303     2.652E-21
  55505.377     2.622E-21
  55505.451     2.604E-21
  55505.525     2.572E-21
  55505.599     2.506E-21
  55505.673     2.492E-21
  55505.747     2.483E-21
  55505.821     2.440E-21
  55505.895     2.412E-21
  55505.969     2.391E-21
  55506.043     2.361E-21
  55506.117     2.341E-21
  55506.191     2.348E-21
  55506.265     2.367E-21
  55506.339     2.393E-21
  55506.413     2.398E-21
  55506.487     2.387E-21
  55506.561     2.393E-21
  55506.635     2.431E-21
  55506.709     2.490E-21
  55506.783     2.560E-21
  55506.857     2.677E-21
  55506.931     2.787E-21
  55507.005     2.956E-21
  55507.101     7.469E-21
  55507.191     8.859E-21
  55507.282     8.089E-21
  55507.372     6.677E-21
  55507.462     5.654E-21
  55507.552     4.416E-21
  55507.642     3.478E-21
  55507.732     4.180E-21
  55507.822     3.886E-21
  55508.041     2.937E-21
  55508.115     2.875E-21
  55508.189     2.838E-21
  55508.263     2.819E-21
  55508.337     2.856E-21
  55508.411     2.893E-21
  55508.485     2.934E-21
  55508.559     2.972E-21
  55508.633     3.028E-21
  55508.707     3.113E-21
  55508.781     3.268E-21
  55508.855     3.482E-21
  55508.929     3.721E-21
  55509.003     3.994E-21
  55509.077     4.367E-21
  55509.151     4.826E-21
  55509.225     5.390E-21
  55509.299     6.252E-21
  55509.354     1.266E-20
  55509.444     1.822E-20
  55509.559     2.450E-20
  55509.650     2.783E-20
  55509.740     2.867E-20
  55509.830     2.831E-20
  55509.894     2.698E-20
  55509.984     2.250E-20
  55510.074     1.779E-20
  55510.164     1.397E-20
  55510.261     9.233E-21
  55510.335     8.414E-21
  55510.409     7.613E-21
  55510.483     6.708E-21
  55510.557     6.261E-21
  55510.631     5.719E-21
  55510.705     5.326E-21
  55510.779     5.015E-21
  55510.853     4.821E-21
  55510.927     4.668E-21
  55511.001     4.592E-21
  55511.075     4.504E-21
  55511.149     4.388E-21
  55511.223     4.333E-21
  55511.297     4.317E-21
  55511.371     4.267E-21
  55511.445     4.263E-21
  55511.519     4.319E-21
  55511.593     4.353E-21
  55511.667     4.337E-21
  55511.741     4.330E-21
  55511.815     4.393E-21
  55511.889     4.555E-21
  55511.963     4.765E-21
  55512.037     5.089E-21
  55512.111     5.510E-21
  55512.185     5.999E-21
  55512.259     6.653E-21
  55512.333     7.336E-21
  55512.416     1.011E-20
  55512.507     1.333E-20
  55512.597     1.578E-20
  55512.687     1.793E-20
  55512.777     2.045E-20
  55512.867     2.169E-20
  55512.957     2.205E-20
  55513.047     2.241E-20
  55513.137     2.246E-20
  55513.227     2.054E-20
  55513.317     1.786E-20
  55513.407     1.507E-20
  55513.497     1.199E-20
  55513.587     9.367E-21
  55513.678     8.038E-21
  55513.768     6.813E-21
  55513.858     5.634E-21
  55513.948     5.339E-21
  55514.038     6.254E-21
  55514.128     8.443E-21
  55514.218     9.723E-21
  55514.308     1.055E-20
  55514.398     1.271E-20
  55514.488     1.568E-20
  55514.578     1.877E-20
  55514.668     1.948E-20
  55514.759     1.937E-20
  55514.849     1.899E-20
  55514.939     1.826E-20
  55515.029     1.702E-20
  55515.119     1.615E-20
  55515.209     1.441E-20
  55515.299     1.398E-20
  55515.389     1.247E-20
  55515.479     1.162E-20
  55515.569     1.098E-20
  55515.659     9.538E-21
  55515.749     8.326E-21
  55515.840     7.024E-21
  55515.930     5.059E-21
  55516.034     4.569E-21
  55516.108     4.146E-21
  55516.182     3.879E-21
  55516.256     3.714E-21
  55516.330     3.592E-21
  55516.404     3.536E-21
  55516.478     3.484E-21
  55516.552     3.384E-21
  55516.626     3.286E-21
  55516.700     3.135E-21
  55516.774     3.010E-21
  55516.848     2.893E-21
  55516.922     2.801E-21
  55516.996     2.722E-21
  55517.070     2.654E-21
  55517.144     2.596E-21
  55517.218     2.542E-21
  55517.292     2.512E-21
  55517.366     2.477E-21
  55517.440     2.416E-21
  55517.514     2.377E-21
  55517.588     2.331E-21
  55517.662     2.290E-21
  55517.736     2.239E-21
  55517.810     2.207E-21
  55517.884     2.191E-21
  55517.958     2.162E-21
  55518.032     2.152E-21
  55518.106     2.161E-21
  55518.180     2.158E-21
  55518.254     2.206E-21
  55518.328     2.284E-21
  55518.402     2.387E-21
  55518.476     2.522E-21
  55518.550     2.691E-21
  55518.624     2.897E-21
  55518.698     3.126E-21
  55518.722     5.769E-21
  55518.812     7.108E-21
  55518.902     9.000E-21
  55518.992     1.017E-20
  55519.082     1.007E-20
  55519.172     1.019E-20
  55519.262     9.751E-21
  55519.353     7.982E-21
  55519.443     6.817E-21
  55519.533     5.970E-21
  55519.623     4.408E-21
  55519.735     2.855E-21
  55519.809     2.708E-21
  55519.883     2.653E-21
  55519.957     2.645E-21
  55520.031     2.683E-21
  55520.105     2.748E-21
  55520.179     2.839E-21
  55520.253     2.995E-21
  55520.327     3.159E-21
  55520.401     3.356E-21
  55520.475     3.542E-21
  55520.549     3.631E-21
  55520.623     3.728E-21
  55520.697     3.700E-21
  55520.771     3.577E-21
  55520.845     3.419E-21
  55520.919     3.166E-21
  55520.993     2.912E-21
  55521.067     2.731E-21
  55521.141     2.572E-21
  55521.215     2.438E-21
  55521.289     2.333E-21
  55521.363     2.231E-21
  55521.437     2.168E-21
  55521.511     2.137E-21
  55521.585     2.142E-21
  55521.659     2.157E-21
  55521.733     2.195E-21
  55521.808     2.243E-21
  55521.882     2.329E-21
  55521.956     2.437E-21
  55522.030     2.506E-21
  55522.104     2.585E-21
  55522.178     2.624E-21
  55522.252     2.621E-21
  55522.326     2.603E-21
  55522.400     2.537E-21
  55522.474     2.440E-21
  55522.548     2.331E-21
  55522.622     2.265E-21
  55522.696     2.225E-21
  55522.770     2.217E-21
  55522.844     2.223E-21
  55522.918     2.246E-21
  55522.992     2.258E-21
  55523.066     2.267E-21
  55523.140     2.296E-21
  55523.214     2.331E-21
  55523.288     2.365E-21
  55523.362     2.426E-21
  55523.436     2.499E-21
  55523.510     2.534E-21
  55523.584     2.604E-21
  55523.658     2.700E-21
  55523.732     2.855E-21
  55523.806     3.014E-21
  55523.880     3.148E-21
  55523.954     3.309E-21
  55524.029     3.426E-21
  55524.103     3.527E-21
  55524.177     3.650E-21
  55524.251     3.782E-21
  55524.487     4.420E-21
  55524.577     4.908E-21
  55524.667     6.890E-21
  55524.757     7.083E-21
  55524.847     7.083E-21
  55524.937     8.518E-21
  55525.027     7.895E-21
  55525.117     6.497E-21
  55525.207     5.369E-21
  55525.297     5.084E-21
  55525.387     4.417E-21
  55525.435     3.630E-21
  55525.509     3.495E-21
  55525.583     3.444E-21
  55525.657     3.431E-21
  55525.731     3.436E-21
  55525.805     3.468E-21
  55525.880     3.496E-21
  55525.954     3.530E-21
  55526.028     3.508E-21
  55526.102     3.499E-21
  55526.176     3.449E-21
  55526.250     3.415E-21
  55526.324     3.339E-21
  55526.398     3.279E-21
  55526.472     3.245E-21
  55526.546     3.219E-21
  55526.620     3.222E-21
  55526.694     3.238E-21
  55526.768     3.300E-21
  55526.842     3.402E-21
  55526.916     3.467E-21
  55526.990     3.524E-21
  55527.064     3.604E-21
  55527.138     3.657E-21
  55527.212     3.762E-21
  55527.286     3.848E-21
  55527.360     3.936E-21
  55527.434     4.060E-21
  55527.508     4.190E-21
  55527.583     4.338E-21
  55527.657     4.524E-21
  55527.731     4.736E-21
  55527.805     4.969E-21
  55527.879     5.216E-21
  55527.953     5.459E-21
  55528.089     5.784E-21
  55528.179     6.658E-21
  55528.270     8.056E-21
  55528.360     8.828E-21
  55528.450     7.923E-21
  55528.540     6.728E-21
  55528.630     5.732E-21
  55528.817     4.466E-21
  55528.891     4.258E-21
  55528.965     4.110E-21
  55529.039     3.936E-21
  55529.113     3.825E-21
  55529.187     3.731E-21
  55529.261     3.655E-21
  55529.335     3.614E-21
  55529.409     3.599E-21
  55529.484     3.568E-21
  55529.558     3.550E-21
  55529.632     3.569E-21
  55529.706     3.586E-21
  55529.780     3.588E-21
  55529.854     3.609E-21
  55529.928     3.608E-21
  55530.002     3.582E-21
  55530.076     3.610E-21
  55530.150     3.699E-21
  55530.224     3.760E-21
  55530.298     3.819E-21
  55530.372     3.772E-21
  55530.446     3.810E-21
  55530.520     3.860E-21
  55530.594     3.905E-21
  55530.668     3.942E-21
  55530.743     4.044E-21
  55530.817     4.145E-21
  55530.891     4.252E-21
  55530.965     4.381E-21
  55531.039     4.496E-21
  55531.113     4.601E-21
  55531.187     4.679E-21
  55531.261     4.810E-21
  55531.335     4.986E-21
  55531.409     5.166E-21
  55531.483     5.300E-21
  55531.557     5.450E-21
  55531.631     5.560E-21
  55531.705     5.685E-21
  55531.779     5.837E-21
  55531.853     6.109E-21
  55531.927     6.427E-21
  55532.002     6.591E-21
  55532.076     6.768E-21
  55532.150     7.054E-21
  55532.224     7.364E-21
  55532.298     7.766E-21
  55532.372     7.991E-21
  55532.446     8.322E-21
  55532.520     8.714E-21
  55532.594     9.049E-21
  55532.668     9.373E-21
  55532.742     9.522E-21
  55532.863     1.152E-20
  55532.953     1.395E-20
  55533.043     1.697E-20
  55533.159     2.014E-20
  55533.223     2.244E-20
  55533.339     2.458E-20
  55533.403     2.821E-20
  55533.519     3.338E-20
  55533.609     3.832E-20
  55533.681     4.529E-20
  55533.771     5.369E-20
  55533.861     6.674E-20
  55533.952     8.615E-20
  55534.042     1.058E-19
  55534.136     1.290E-19
  55534.228     1.543E-19
  55534.316     1.675E-19
  55534.386     1.745E-19
  55534.496     1.668E-19
  55534.586     1.462E-19
  55534.676     1.290E-19
  55534.766     1.123E-19
  55534.856     1.018E-19
  55534.946     9.991E-20
  55535.036     9.768E-20
  55535.126     9.259E-20
  55535.216     9.404E-20
  55535.306     1.024E-19
  55535.396     1.100E-19
  55535.486     1.132E-19
  55535.576     1.221E-19
  55535.667     1.343E-19
  55535.757     1.471E-19
  55535.847     1.588E-19
  55535.927     1.664E-19
  55536.027     1.646E-19
  55536.097     1.606E-19
  55536.207     1.538E-19
  55536.297     1.465E-19
  55536.387     1.453E-19
  55536.477     1.474E-19
  55536.567     1.491E-19
  55536.638     1.484E-19
  55536.747     1.482E-19
  55536.837     1.451E-19
  55536.927     1.359E-19
  55537.017     1.242E-19
  55537.107     1.100E-19
  55537.198     9.447E-20
  55537.288     7.875E-20
  55537.378     7.116E-20
  55537.464     6.447E-20
  55537.554     5.658E-20
  55537.683     3.218E-20
  55538.964     1.048E-20
  55539.038     1.039E-20
  55539.112     9.917E-21
  55539.186     9.406E-21
  55539.261     9.054E-21
  55539.335     8.768E-21
  55539.409     8.434E-21
  55539.483     8.155E-21
  55539.557     7.893E-21
  55539.631     7.567E-21
  55539.705     7.376E-21
  55539.779     7.106E-21
  55539.853     6.786E-21
  55539.927     6.583E-21
  55540.001     6.333E-21
  55540.075     6.185E-21
  55540.150     5.984E-21
  55540.224     5.864E-21
  55540.298     5.720E-21
  55540.372     5.557E-21
  55540.446     5.413E-21
  55540.520     5.325E-21
  55540.594     5.225E-21
  55540.668     5.127E-21
  55540.742     5.037E-21
  55540.816     4.922E-21
  55540.890     4.789E-21
  55540.964     4.729E-21
  55541.039     4.675E-21
  55541.113     4.596E-21
  55541.187     4.515E-21
  55541.261     4.412E-21
  55541.335     4.381E-21
  55541.409     4.286E-21
  55541.483     4.209E-21
  55541.557     4.151E-21
  55541.631     4.066E-21
  55541.705     4.047E-21
  55541.779     4.054E-21
  55541.853     4.023E-21
  55541.928     4.020E-21
  55542.076     3.946E-21
  55542.150     3.894E-21
  55542.223     3.927E-21
  55542.297     3.925E-21
  55542.370     3.897E-21
  55542.444     3.894E-21
  55542.517     3.854E-21
  55542.591     3.824E-21
  55542.665     3.766E-21
  55542.739     3.711E-21
  55542.813     3.670E-21
  55542.886     3.613E-21
  55542.960     3.565E-21
  55543.033     3.526E-21
  55543.107     3.452E-21
  55543.181     3.423E-21
  55543.254     3.408E-21
  55543.328     3.380E-21
  55543.401     3.430E-21
  55543.475     3.472E-21
  55543.549     3.491E-21
  55543.623     3.490E-21
  55543.696     3.506E-21
  55543.770     3.517E-21
  55543.844     3.508E-21
  55543.917     3.494E-21
  55543.991     3.505E-21
  55544.064     3.531E-21
  55544.138     3.522E-21
  55544.211     3.522E-21
  55544.285     3.538E-21
  55544.359     3.540E-21
  55544.433     3.520E-21
  55544.507     3.488E-21
  55544.580     3.462E-21
  55544.654     3.421E-21
  55544.727     3.345E-21
  55544.801     3.293E-21
  55544.874     3.264E-21
  55544.948     3.229E-21
  55545.021     3.194E-21
  55545.096     3.171E-21
  55545.169     3.144E-21
  55545.243     3.122E-21
  55545.317     3.143E-21
  55545.390     3.204E-21
  55545.464     3.227E-21
  55545.537     3.272E-21
  55545.611     3.323E-21
  55545.685     3.387E-21
  55545.758     3.481E-21
  55545.832     3.539E-21
  55545.906     3.614E-21
  55545.979     3.656E-21
  55546.053     3.709E-21
  55546.126     3.730E-21
  55546.200     3.731E-21
  55546.273     3.693E-21
  55546.347     3.638E-21
  55546.421     3.571E-21
  55546.495     3.490E-21
  55546.568     3.393E-21
  55546.642     3.317E-21
  55546.716     3.248E-21
  55546.789     3.166E-21
  55546.863     3.124E-21
  55546.936     3.042E-21
  55547.010     2.981E-21
  55547.083     2.937E-21
  55547.157     2.912E-21
  55547.230     2.927E-21
  55547.304     2.940E-21
  55547.379     2.931E-21
  55547.452     2.929E-21
  55547.526     2.919E-21
  55547.599     2.927E-21
  55547.673     2.955E-21
  55547.746     2.946E-21
  55547.820     2.947E-21
  55547.893     2.984E-21
  55548.041     3.032E-21
  55548.115     3.110E-21
  55548.189     3.191E-21
  55548.263     3.267E-21
  55548.337     3.364E-21
  55548.412     3.498E-21
  55548.486     3.607E-21
  55548.560     3.737E-21
  55548.634     3.833E-21
  55548.708     3.898E-21
  55548.782     3.954E-21
  55548.856     3.944E-21
  55548.930     3.940E-21
  55549.004     3.943E-21
  55549.078     3.922E-21
  55549.152     3.927E-21
  55549.226     3.991E-21
  55549.301     4.063E-21
  55549.375     4.142E-21
  55549.449     4.229E-21
  55549.523     4.288E-21
  55549.597     4.379E-21
  55549.671     4.478E-21
  55549.745     4.543E-21
  55549.819     4.627E-21
  55549.893     4.681E-21
  55549.967     4.721E-21
  55550.041     4.684E-21
  55550.115     4.595E-21
  55550.189     4.576E-21
  55550.264     4.633E-21
  55550.338     4.669E-21
  55550.412     4.730E-21
  55550.486     4.803E-21
  55550.560     4.907E-21
  55550.634     4.981E-21
  55550.708     5.091E-21
  55550.782     5.204E-21
  55550.856     5.445E-21
  55550.930     5.749E-21
  55551.004     5.958E-21
  55551.078     6.321E-21
  55551.153     6.825E-21
  55551.227     7.444E-21
  55551.301     8.110E-21
  55551.375     8.687E-21
  55551.503     1.461E-20
  55551.619     2.322E-20
  55551.709     3.385E-20
  55551.781     4.861E-20
  55551.872     6.091E-20
  55551.961     6.463E-20
  55552.051     5.986E-20
  55552.159     5.025E-20
  55552.249     3.966E-20
  55552.339     3.036E-20
  55552.429     2.369E-20
  55552.494     1.921E-20
  55552.584     1.747E-20
  55552.674     1.546E-20
  55552.764     1.240E-20
  55552.854     1.111E-20
  55552.944     1.045E-20
  55553.034     9.991E-21
  55553.079     9.828E-21
  55553.153     9.881E-21
  55553.227     9.944E-21
  55553.301     1.024E-20
  55553.375     1.066E-20
  55553.394     1.083E-20
  55553.484     1.116E-20
  55553.574     1.215E-20
  55553.664     1.354E-20
  55553.754     1.601E-20
  55553.844     1.816E-20
  55553.934     2.162E-20
  55554.050     2.486E-20
  55554.140     2.712E-20
  55554.230     3.286E-20
  55554.320     4.223E-20
  55554.392     5.169E-20
  55554.483     5.917E-20
  55554.573     6.483E-20
  55554.663     6.665E-20
  55554.753     6.302E-20
  55554.843     5.675E-20
  55554.933     5.288E-20
  55555.040     5.253E-20
  55555.130     5.178E-20
  55555.203     5.132E-20
  55555.293     5.324E-20
  55555.383     5.865E-20
  55555.473     6.872E-20
  55555.564     8.552E-20
  55555.654     1.043E-19
  55555.747     1.306E-19
  55555.839     1.763E-19
  55555.917     2.259E-19
  55556.007     2.630E-19
  55556.097     2.832E-19
  55556.187     2.870E-19
  55556.277     2.805E-19
  55556.367     2.683E-19
  55556.457     2.482E-19
  55556.538     2.295E-19
  55556.628     2.091E-19
  55556.718     1.800E-19
  55556.808     1.682E-19
  55556.898     1.836E-19
  55556.998     2.019E-19
  55557.078     2.148E-19
  55557.178     2.347E-19
  55557.268     2.473E-19
  55557.358     2.629E-19
  55557.448     2.754E-19
  55557.538     2.876E-19
  55557.628     2.904E-19
  55557.718     2.757E-19
  55557.808     2.606E-19
  55557.898     2.511E-19
  55557.988     2.425E-19
  55558.078     2.328E-19
  55558.158     2.179E-19
  55558.248     1.961E-19
  55558.338     1.665E-19
  55558.448     1.363E-19
  55558.538     1.197E-19
  55558.628     1.032E-19
  55558.718     8.579E-20
  55558.804     7.382E-20
  55558.894     6.377E-20
  55558.984     5.635E-20
  55559.074     5.229E-20
  55559.164     4.843E-20
  55559.254     4.265E-20
  55559.362     3.688E-20
  55559.467     2.507E-20
  55560.466     1.163E-20
  55560.637     1.027E-20
  55560.711     1.019E-20
  55560.785     9.825E-21
  55560.859     9.423E-21
  55560.933     9.139E-21
  55561.007     8.801E-21
  55561.082     8.486E-21
  55561.156     8.274E-21
  55561.230     8.025E-21
  55561.304     7.670E-21
  55561.378     7.292E-21
  55561.452     7.050E-21
  55561.526     6.976E-21
  55561.600     6.708E-21
  55561.674     6.433E-21
  55561.749     6.295E-21
  55561.823     6.195E-21
  55561.897     6.065E-21
  55561.971     5.927E-21
  55562.045     5.824E-21
  55562.119     5.660E-21
  55562.193     5.532E-21
  55562.267     5.457E-21
  55562.341     5.348E-21
  55562.416     5.266E-21
  55562.490     5.218E-21
  55562.564     5.157E-21
  55562.638     5.050E-21
  55562.712     4.936E-21
  55562.786     4.853E-21
  55562.860     4.754E-21
  55562.934     4.643E-21
  55563.008     4.580E-21
  55563.083     4.505E-21
  55563.157     4.499E-21
  55563.231     4.466E-21
  55563.305     4.414E-21
  55563.379     4.344E-21
  55563.453     4.254E-21
  55563.527     4.154E-21
  55563.601     4.032E-21
  55563.676     4.015E-21
  55563.750     4.017E-21
  55563.824     3.979E-21
  55563.898     3.967E-21
  55563.972     4.018E-21
  55564.046     4.109E-21
  55564.120     4.262E-21
  55564.194     4.395E-21
  55564.268     4.629E-21
  55564.343     4.761E-21
  55564.417     4.922E-21
  55564.491     5.017E-21
  55564.565     4.978E-21
  55564.639     4.920E-21
  55564.713     4.793E-21
  55564.787     4.593E-21
  55564.861     4.460E-21
  55564.936     4.184E-21
  55565.010     3.992E-21
  55565.084     3.816E-21
  55565.158     3.658E-21
  55565.232     3.541E-21
  55565.306     3.485E-21
  55565.380     3.418E-21
  55565.454     3.355E-21
  55565.528     3.295E-21
  55565.603     3.170E-21
  55565.677     3.126E-21
  55565.751     3.087E-21
  55565.825     3.067E-21
  55565.899     3.046E-21
  55565.973     3.026E-21
  55566.047     2.996E-21
  55566.121     2.980E-21
  55566.196     2.959E-21
  55566.270     2.946E-21
  55566.344     2.954E-21
  55566.418     2.932E-21
  55566.492     2.925E-21
  55566.566     2.890E-21
  55566.640     2.886E-21
  55566.714     2.870E-21
  55566.789     2.852E-21
  55566.863     2.837E-21
  55566.937     2.791E-21
  55567.011     2.772E-21
  55567.085     2.773E-21
  55567.159     2.797E-21
  55567.233     2.780E-21
  55567.307     2.738E-21
  55567.382     2.748E-21
  55567.456     2.743E-21
  55567.530     2.741E-21
  55567.604     2.707E-21
  55567.678     2.719E-21
  55567.752     2.714E-21
  55567.826     2.691E-21
  55567.900     2.655E-21
  55567.975     2.650E-21
  55568.049     2.643E-21
  55568.123     2.639E-21
  55568.197     2.615E-21
  55568.271     2.570E-21
  55568.345     2.547E-21
  55568.419     2.543E-21
  55568.494     2.522E-21
  55568.568     2.531E-21
  55568.642     2.537E-21
  55568.716     2.549E-21
  55568.790     2.575E-21
  55568.864     2.609E-21
  55568.938     2.676E-21
  55569.012     2.763E-21
  55569.087     2.852E-21
  55569.161     2.945E-21
  55569.235     3.043E-21
  55569.309     3.107E-21
  55569.383     3.142E-21
  55569.457     3.185E-21
  55569.531     3.154E-21
  55569.605     3.092E-21
  55569.680     3.078E-21
  55569.754     3.057E-21
  55569.828     3.071E-21
  55569.902     3.067E-21
  55569.976     3.164E-21
  55570.050     3.370E-21
  55570.124     3.521E-21
  55570.199     3.794E-21
  55570.273     4.015E-21
  55570.347     4.250E-21
  55570.421     4.516E-21
  55570.495     4.724E-21
  55570.569     4.814E-21
  55570.643     4.812E-21
  55570.717     4.719E-21
  55570.792     4.549E-21
  55570.866     4.336E-21
  55570.940     4.093E-21
  55571.014     3.852E-21
  55571.088     3.654E-21
  55571.162     3.419E-21
  55571.236     3.193E-21
  55571.311     3.002E-21
  55571.385     2.840E-21
  55571.459     2.713E-21
  55571.533     2.631E-21
  55571.607     2.559E-21
  55571.681     2.462E-21
  55571.755     2.407E-21
  55571.830     2.374E-21
  55571.904     2.333E-21
  55571.978     2.322E-21
  55572.052     2.322E-21
  55572.126     2.328E-21
  55572.200     2.326E-21
  55572.274     2.333E-21
  55572.348     2.346E-21
  55572.423     2.347E-21
  55572.497     2.341E-21
  55572.570     2.322E-21
  55572.644     2.277E-21
  55572.718     2.241E-21
  55572.793     2.244E-21
  55572.867     2.258E-21
  55572.941     2.242E-21
  55573.015     2.231E-21
  55573.089     2.229E-21
  55573.163     2.242E-21
  55573.237     2.260E-21
  55573.312     2.266E-21
  55573.386     2.262E-21
  55573.460     2.247E-21
  55573.534     2.227E-21
  55573.608     2.206E-21
  55573.682     2.189E-21
  55573.756     2.182E-21
  55573.831     2.189E-21
  55573.905     2.176E-21
  55573.979     2.155E-21
  55574.053     2.146E-21
  55574.127     2.141E-21
  55574.201     2.146E-21
  55574.275     2.167E-21
  55574.349     2.176E-21
  55574.423     2.179E-21
  55574.498     2.190E-21
  55574.572     2.202E-21
  55574.646     2.207E-21
  55574.720     2.213E-21
  55574.794     2.230E-21
  55574.868     2.255E-21
  55574.942     2.280E-21
  55575.017     2.320E-21
  55575.091     2.364E-21
  55575.165     2.428E-21
  55575.239     2.513E-21
  55575.313     2.587E-21
  55575.387     2.677E-21
  55575.461     2.739E-21
  55575.535     2.777E-21
  55575.609     2.800E-21
  55575.683     2.774E-21
  55575.757     2.722E-21
  55575.832     2.668E-21
  55575.906     2.629E-21
  55575.980     2.599E-21
  55576.054     2.561E-21
  55576.128     2.563E-21
  55576.202     2.615E-21
  55576.276     2.677E-21
  55576.351     2.728E-21
  55576.425     2.785E-21
  55576.499     2.826E-21
  55576.573     2.883E-21
  55576.647     2.897E-21
  55576.721     2.918E-21
  55576.795     2.948E-21
  55576.870     2.925E-21
  55576.944     2.895E-21
  55577.018     2.880E-21
  55577.092     2.828E-21
  55577.166     2.746E-21
  55577.240     2.687E-21
  55577.315     2.645E-21
  55577.389     2.574E-21
  55577.463     2.526E-21
  55577.537     2.483E-21
  55577.611     2.428E-21
  55577.685     2.374E-21
  55577.759     2.332E-21
  55577.834     2.311E-21
  55577.908     2.274E-21
  55577.982     2.248E-21
  55578.056     2.241E-21
  55578.130     2.222E-21
  55578.204     2.206E-21
  55578.279     2.189E-21
  55578.353     2.177E-21
  55578.427     2.194E-21
  55578.501     2.199E-21
  55578.575     2.190E-21
  55578.649     2.177E-21
  55578.723     2.183E-21
  55578.798     2.211E-21
  55578.872     2.232E-21
  55578.946     2.248E-21
  55579.020     2.260E-21
  55579.094     2.258E-21
  55579.168     2.237E-21
  55579.243     2.243E-21
  55579.317     2.256E-21
  55579.391     2.285E-21
  55579.465     2.318E-21
  55579.539     2.362E-21
  55579.613     2.385E-21
  55579.687     2.407E-21
  55579.762     2.450E-21
  55579.836     2.483E-21
  55579.910     2.538E-21
  55579.984     2.597E-21
  55580.058     2.679E-21
  55580.132     2.775E-21
  55580.207     2.876E-21
  55580.281     2.998E-21
  55580.355     3.181E-21
  55580.429     3.522E-21
  55580.581     8.397E-21
  55580.672     1.229E-20
  55580.787     1.734E-20
  55580.852     1.973E-20
  55580.942     1.950E-20
  55581.032     1.734E-20
  55581.122     1.329E-20
  55581.212     1.150E-20
  55581.275     5.039E-21
  55581.393     4.680E-21
  55581.467     4.239E-21
  55581.542     3.904E-21
  55581.616     3.660E-21
  55581.690     3.460E-21
  55581.764     3.315E-21
  55581.838     3.186E-21
  55581.912     3.062E-21
  55581.986     2.958E-21
  55582.061     2.892E-21
  55582.135     2.850E-21
  55582.209     2.815E-21
  55582.283     2.790E-21
  55582.357     2.808E-21
  55582.431     2.849E-21
  55582.506     2.871E-21
  55582.580     2.900E-21
  55582.654     2.930E-21
  55582.728     2.935E-21
  55582.802     2.938E-21
  55582.876     2.922E-21
  55582.951     2.942E-21
  55583.025     2.978E-21
  55583.099     3.045E-21
  55583.173     3.118E-21
  55583.247     3.251E-21
  55583.321     3.376E-21
  55583.396     3.493E-21
  55583.470     3.603E-21
  55583.544     3.755E-21
  55583.618     3.847E-21
  55583.692     3.870E-21
  55583.766     3.896E-21
  55583.841     3.944E-21
  55583.915     3.953E-21
  55583.989     3.940E-21
  55584.063     3.919E-21
  55584.137     3.930E-21
  55584.211     3.938E-21
  55584.286     3.914E-21
  55584.360     3.887E-21
  55584.434     3.986E-21
  55584.508     4.053E-21
  55584.896     8.062E-21
  55585.172     8.929E-21
  55585.262     1.143E-20
  55585.352     1.408E-20
  55585.442     1.722E-20
  55585.532     1.983E-20
  55585.622     2.080E-20
  55585.712     1.834E-20
  55585.802     1.443E-20
  55585.892     1.112E-20
  55585.982     9.095E-21
  55586.072     9.074E-21
  55586.162     1.012E-20
  55586.252     9.316E-21
  55586.342     6.490E-21
  55586.363     6.148E-21
  55586.437     6.033E-21
  55586.511     6.082E-21
  55586.585     6.060E-21
  55586.659     6.133E-21
  55586.733     6.139E-21
  55586.808     6.239E-21
  55586.882     6.394E-21
  55586.956     6.524E-21
  55587.030     6.651E-21
  55587.104     6.782E-21
  55587.178     7.010E-21
  55587.253     7.366E-21
  55587.327     7.593E-21
  55587.401     7.842E-21
  55587.475     8.271E-21
  55587.549     8.711E-21
  55587.624     9.335E-21
  55587.698     9.812E-21
  55587.772     1.015E-20
  55587.872     1.630E-20
  55587.987     2.166E-20
  55588.077     2.443E-20
  55588.167     2.481E-20
  55588.257     2.537E-20
  55588.322     2.634E-20
  55588.437     2.617E-20
  55588.502     2.535E-20
  55588.617     2.288E-20
  55588.682     1.920E-20
  55588.772     1.783E-20
  55588.862     1.912E-20
  55588.952     2.126E-20
  55589.067     2.324E-20
  55589.157     2.607E-20
  55589.247     2.943E-20
  55589.337     3.336E-20
  55589.427     3.593E-20
  55589.517     3.959E-20
  55589.590     4.568E-20
  55589.697     5.201E-20
  55589.770     6.039E-20
  55589.860     7.151E-20
  55589.951     9.056E-20
  55590.044     1.185E-19
  55590.136     1.501E-19
  55590.204     1.805E-19
  55590.304     2.108E-19
  55590.394     2.371E-19
  55590.484     2.549E-19
  55590.574     2.534E-19
  55590.664     2.415E-19
  55590.754     2.252E-19
  55590.834     1.979E-19
  55590.944     1.706E-19
  55591.034     1.538E-19
  55591.124     1.518E-19
  55591.194     1.568E-19
  55591.284     1.538E-19
  55591.394     1.573E-19
  55591.464     1.787E-19
  55591.564     2.061E-19
  55591.644     2.209E-19
  55591.744     2.270E-19
  55591.834     2.456E-19
  55591.924     2.634E-19
  55592.014     2.636E-19
  55592.104     2.612E-19
  55592.194     2.559E-19
  55592.284     2.538E-19
  55592.374     2.527E-19
  55592.464     2.403E-19
  55592.554     2.252E-19
  55592.634     2.144E-19
  55592.734     2.071E-19
  55592.814     1.922E-19
  55592.924     1.630E-19
  55593.014     1.383E-19
  55593.104     1.174E-19
  55593.193     1.004E-19
  55593.284     8.622E-20
  55593.373     7.397E-20
  55593.460     6.250E-20
  55593.550     5.552E-20
  55593.640     5.097E-20
  55593.730     4.750E-20
  55593.820     4.318E-20
  55593.927     3.859E-20
  55594.017     3.452E-20
  55594.107     3.141E-20
  55594.197     2.842E-20
  55594.287     2.688E-20
  55594.352     2.704E-20
  55594.442     2.447E-20
  55594.532     2.125E-20
  55594.622     1.992E-20
  55594.712     1.864E-20
  55594.802     1.719E-20
  55594.892     1.658E-20
  55594.982     1.574E-20
  55595.072     1.494E-20
  55595.162     1.430E-20
  55595.252     1.449E-20
  55595.342     1.420E-20
  55595.432     1.394E-20
  55595.562     1.059E-20
  55595.636     1.034E-20
  55595.710     1.017E-20
  55595.784     9.788E-21
  55595.859     9.344E-21
  55595.933     8.948E-21
  55596.007     8.643E-21
  55596.081     8.405E-21
  55596.155     7.969E-21
  55596.230     7.767E-21
  55596.304     7.621E-21
  55596.378     7.597E-21
  55596.452     7.587E-21
  55596.526     7.424E-21
  55596.601     7.287E-21
  55596.675     7.149E-21
  55596.749     7.035E-21
  55596.823     7.012E-21
  55596.897     6.895E-21
  55596.972     6.827E-21
  55597.046     6.717E-21
  55597.120     6.623E-21
  55597.194     6.669E-21
  55597.268     6.660E-21
  55597.343     6.531E-21
  55597.417     6.438E-21
  55597.491     6.428E-21
  55597.565     6.461E-21
  55597.639     6.400E-21
  55597.714     6.491E-21
  55597.788     6.431E-21
  55597.862     6.364E-21
  55597.936     6.468E-21
  55598.010     6.680E-21
  55598.085     6.786E-21
  55598.159     6.982E-21
  55598.233     7.317E-21
  55598.307     7.648E-21
  55598.381     8.082E-21
  55598.456     8.540E-21
  55598.530     9.151E-21
  55598.604     9.539E-21
  55598.787     2.240E-20
  55598.877     2.833E-20
  55598.967     3.680E-20
  55599.057     4.580E-20
  55599.129     5.258E-20
  55599.219     5.500E-20
  55599.309     5.126E-20
  55599.399     4.321E-20
  55599.507     3.363E-20
  55599.571     2.576E-20
  55599.661     1.977E-20
  55599.751     1.572E-20
  55599.841     1.300E-20
  55599.931     1.214E-20
  55600.014     9.314E-21
  55600.088     8.992E-21
  55600.162     8.436E-21
  55600.237     8.094E-21
  55600.311     7.663E-21
  55600.385     7.238E-21
  55600.459     7.048E-21
  55600.534     6.915E-21
  55600.608     6.973E-21
  55600.682     7.021E-21
  55600.756     7.041E-21
  55600.830     7.074E-21
  55600.905     7.153E-21
  55600.979     7.370E-21
  55601.053     7.590E-21
  55601.127     8.112E-21
  55601.201     8.652E-21
  55601.276     9.334E-21
  55601.350     9.568E-21
  55601.461     1.754E-20
  55601.576     2.233E-20
  55601.666     2.869E-20
  55601.756     3.626E-20
  55601.846     4.253E-20
  55601.919     4.752E-20
  55602.009     4.912E-20
  55602.099     4.603E-20
  55602.206     4.038E-20
  55602.279     3.584E-20
  55602.361     3.023E-20
  55602.451     2.515E-20
  55602.541     2.134E-20
  55602.631     1.873E-20
  55602.721     1.754E-20
  55602.811     1.726E-20
  55602.901     1.665E-20
  55602.991     1.730E-20
  55603.106     2.101E-20
  55603.171     2.394E-20
  55603.286     2.868E-20
  55603.376     3.463E-20
  55603.466     3.844E-20
  55603.556     4.111E-20
  55603.628     4.324E-20
  55603.718     4.181E-20
  55603.826     3.719E-20
  55603.916     3.256E-20
  55604.006     2.765E-20
  55604.071     2.456E-20
  55604.161     2.287E-20
  55604.276     2.110E-20
  55604.341     1.743E-20
  55604.431     1.494E-20
  55604.521     1.425E-20
  55604.611     1.469E-20
  55604.701     1.342E-20
  55604.791     1.064E-20
  55604.838     1.021E-20
  55604.912     9.918E-21
  55604.987     9.584E-21
  55605.061     9.244E-21
  55605.135     9.027E-21
  55605.209     8.892E-21
  55605.284     8.871E-21
  55605.358     8.802E-21
  55605.432     8.806E-21
  55605.506     8.891E-21
  55605.580     8.808E-21
  55605.655     9.056E-21
  55605.729     9.108E-21
  55605.803     9.205E-21
  55605.877     9.359E-21
  55605.952     9.647E-21
  55606.026     9.763E-21
  55606.100     9.773E-21
  55606.174     9.984E-21
  55606.248     1.017E-20
  55606.323     1.049E-20
  55606.397     1.083E-20
  55606.410     1.161E-20
  55606.500     1.187E-20
  55606.590     1.271E-20
  55606.680     1.463E-20
  55606.770     1.581E-20
  55606.860     1.604E-20
  55606.950     1.573E-20
  55607.040     1.509E-20
  55607.130     1.586E-20
  55607.220     1.849E-20
  55607.310     1.949E-20
  55607.400     1.872E-20
  55607.490     1.884E-20
  55607.580     2.068E-20
  55607.695     2.297E-20
  55607.760     2.460E-20
  55607.875     2.721E-20
  55607.965     2.998E-20
  55608.055     3.205E-20
  55608.145     3.533E-20
  55608.217     4.149E-20
  55608.307     4.758E-20
  55608.397     5.359E-20
  55608.487     6.270E-20
  55608.577     7.540E-20
  55608.668     9.292E-20
  55608.761     1.178E-19
  55608.851     1.494E-19
  55608.944     1.828E-19
  55609.012     2.272E-19
  55609.112     2.861E-19
  55609.202     3.196E-19
  55609.292     3.390E-19
  55609.396     3.563E-19
  55609.486     3.458E-19
  55609.561     3.126E-19
  55609.651     2.873E-19
  55609.741     2.713E-19
  55609.831     2.656E-19
  55609.921     2.655E-19
  55610.011     2.773E-19
  55610.101     3.004E-19
  55610.191     3.173E-19
  55610.296     3.386E-19
  55610.386     3.717E-19
  55610.476     3.975E-19
  55610.566     4.031E-19
  55610.656     4.060E-19
  55610.746     3.990E-19
  55610.836     3.900E-19
  55610.926     3.718E-19
  55611.016     3.365E-19
  55611.091     2.972E-19
  55611.181     2.482E-19
  55611.283     2.053E-19
  55611.371     1.745E-19
  55611.461     1.464E-19
  55611.551     1.236E-19
  55611.641     1.047E-19
  55611.730     9.304E-20
  55611.820     8.108E-20
  55611.906     6.991E-20
  55611.996     6.185E-20
  55612.086     5.606E-20
  55612.176     4.900E-20
  55612.284     4.369E-20
  55612.374     4.060E-20
  55612.464     3.548E-20
  55612.554     3.087E-20
  55612.644     2.921E-20
  55612.734     2.802E-20
  55612.799     2.637E-20
  55612.879     2.252E-20
  55613.785     1.329E-20
  55614.266     1.048E-20
  55614.340     1.012E-20
  55614.415     9.716E-21
  55614.489     9.464E-21
  55614.563     9.149E-21
  55614.637     8.967E-21
  55614.712     8.627E-21
  55614.786     8.217E-21
  55614.860     7.967E-21
  55614.934     7.751E-21
  55615.009     7.692E-21
  55615.083     7.587E-21
  55615.157     7.433E-21
  55615.231     7.434E-21
  55615.306     7.421E-21
  55615.380     7.239E-21
  55615.454     7.100E-21
  55615.528     6.994E-21
  55615.603     6.764E-21
  55615.677     6.485E-21
  55615.751     6.339E-21
  55615.825     6.230E-21
  55615.900     6.082E-21
  55615.974     5.916E-21
  55616.048     5.816E-21
  55616.122     5.667E-21
  55616.197     5.618E-21
  55616.271     5.551E-21
  55616.345     5.433E-21
  55616.419     5.344E-21
  55616.494     5.265E-21
  55616.568     5.146E-21
  55616.642     5.043E-21
  55616.716     4.967E-21
  55616.791     4.898E-21
  55616.865     4.868E-21
  55616.939     4.794E-21
  55617.013     4.680E-21
  55617.088     4.598E-21
  55617.162     4.494E-21
  55617.236     4.496E-21
  55617.310     4.478E-21
  55617.385     4.498E-21
  55617.459     4.478E-21
  55617.533     4.379E-21
  55617.607     4.316E-21
  55617.682     4.233E-21
  55617.756     4.197E-21
  55617.830     4.166E-21
  55617.904     4.137E-21
  55617.979     4.119E-21
  55618.053     4.135E-21
  55618.127     4.114E-21
  55618.201     4.122E-21
  55618.276     4.090E-21
  55618.350     4.048E-21
  55618.424     4.034E-21
  55618.499     3.995E-21
  55618.573     3.928E-21
  55618.647     3.837E-21
  55618.721     3.751E-21
  55618.796     3.734E-21
  55618.870     3.696E-21
  55618.944     3.644E-21
  55619.018     3.603E-21
  55619.093     3.561E-21
  55619.167     3.509E-21
  55619.241     3.463E-21
  55619.315     3.431E-21
  55619.390     3.422E-21
  55619.464     3.372E-21
  55619.538     3.320E-21
  55619.612     3.294E-21
  55619.687     3.271E-21
  55619.761     3.249E-21
  55619.835     3.268E-21
  55619.909     3.301E-21
  55619.984     3.321E-21
  55620.058     3.345E-21
  55620.132     3.381E-21
  55620.207     3.424E-21
  55620.281     3.433E-21
  55620.355     3.454E-21
  55620.429     3.399E-21
  55620.504     3.335E-21
  55620.578     3.336E-21
  55620.652     3.284E-21
  55620.726     3.240E-21
  55620.801     3.282E-21
  55620.875     3.277E-21
  55620.949     3.304E-21
  55621.023     3.321E-21
  55621.098     3.386E-21
  55621.172     3.501E-21
  55621.246     3.613E-21
  55621.320     3.772E-21
  55621.395     3.845E-21
  55621.469     3.886E-21
  55621.543     3.938E-21
  55621.618     3.913E-21
  55621.692     3.865E-21
  55621.766     3.820E-21
  55621.840     3.769E-21
  55621.915     3.773E-21
  55621.989     3.783E-21
  55622.063     3.807E-21
  55622.137     3.878E-21
  55622.212     4.000E-21
  55622.286     4.082E-21
  55622.359     4.180E-21
  55622.434     4.195E-21
  55622.508     4.165E-21
  55622.582     4.113E-21
  55622.656     4.028E-21
  55622.731     3.913E-21
  55622.804     3.750E-21
  55622.878     3.605E-21
  55622.952     3.502E-21
  55623.027     3.346E-21
  55623.101     3.250E-21
  55623.175     3.153E-21
  55623.249     3.078E-21
  55623.323     3.027E-21
  55623.397     2.972E-21
  55623.471     2.959E-21
  55623.546     2.930E-21
  55623.620     2.918E-21
  55623.693     2.925E-21
  55623.767     2.933E-21
  55623.842     2.955E-21
  55623.916     2.957E-21
  55623.990     2.962E-21
  55624.064     2.941E-21
  55624.138     2.912E-21
  55624.212     2.896E-21
  55624.286     2.856E-21
  55624.361     2.832E-21
  55624.435     2.818E-21
  55624.509     2.793E-21
  55624.582     2.784E-21
  55624.657     2.760E-21
  55624.731     2.748E-21
  55624.805     2.752E-21
  55624.879     2.789E-21
  55624.954     2.841E-21
  55625.028     2.918E-21
  55625.101     3.026E-21
  55625.176     3.203E-21
  55625.250     3.390E-21
  55625.324     3.601E-21
  55625.398     3.751E-21
  55625.473     3.842E-21
  55625.546     3.851E-21
  55625.620     3.833E-21
  55625.695     3.788E-21
  55625.769     3.776E-21
  55625.843     3.785E-21
  55625.917     3.824E-21
  55625.991     3.866E-21
  55626.065     3.889E-21
  55626.139     3.879E-21
  55626.214     3.844E-21
  55626.288     3.772E-21
  55626.362     3.703E-21
  55626.435     3.628E-21
  55626.510     3.573E-21
  55626.584     3.562E-21
  55626.658     3.579E-21
  55626.733     3.630E-21
  55626.807     3.728E-21
  55626.880     3.831E-21
  55626.954     3.899E-21
  55627.029     3.950E-21
  55627.103     4.027E-21
  55627.177     4.079E-21
  55627.252     4.063E-21
  55627.325     4.007E-21
  55627.399     3.890E-21
  55627.473     3.807E-21
  55627.548     3.698E-21
  55627.622     3.593E-21
  55627.696     3.498E-21
  55627.769     3.427E-21
  55627.844     3.333E-21
  55627.918     3.195E-21
  55628.067     3.071E-21
  55628.141     3.019E-21
  55628.215     3.014E-21
  55628.289     3.047E-21
  55628.364     2.992E-21
  55628.438     3.002E-21
  55628.512     3.012E-21
  55628.587     3.039E-21
  55628.661     3.053E-21
  55628.735     3.084E-21
  55628.809     3.137E-21
  55628.884     3.194E-21
  55628.958     3.251E-21
  55629.032     3.295E-21
  55629.107     3.344E-21
  55629.181     3.463E-21
  55629.291     5.190E-21
  55629.532     6.259E-21
  55629.622     8.578E-21
  55629.712     1.108E-20
  55629.802     1.414E-20
  55629.892     1.760E-20
  55629.982     1.755E-20
  55630.072     1.543E-20
  55630.162     1.451E-20
  55630.252     1.250E-20
  55630.342     1.026E-20
  55630.432     8.118E-21
  55630.522     7.230E-21
  55630.612     6.747E-21
  55630.702     4.975E-21
  55630.815     4.070E-21
  55630.890     3.967E-21
  55630.964     3.912E-21
  55631.038     3.865E-21
  55631.112     3.844E-21
  55631.187     3.828E-21
  55631.261     3.874E-21
  55631.335     3.907E-21
  55631.410     3.937E-21
  55631.484     3.972E-21
  55631.558     3.990E-21
  55631.632     4.045E-21
  55631.707     4.020E-21
  55631.781     3.986E-21
  55631.855     3.977E-21
  55631.930     4.043E-21
  55632.004     4.070E-21
  55632.078     4.056E-21
  55632.153     4.053E-21
  55632.227     4.071E-21
  55632.301     4.105E-21
  55632.375     4.123E-21
  55632.450     4.136E-21
  55632.524     4.140E-21
  55632.598     4.145E-21
  55632.673     4.193E-21
  55632.747     4.178E-21
  55632.821     4.206E-21
  55632.896     4.330E-21
  55632.970     4.353E-21
  55633.044     4.423E-21
  55633.118     4.504E-21
  55633.193     4.579E-21
  55633.267     4.629E-21
  55633.341     4.728E-21
  55633.416     4.886E-21
  55633.490     4.966E-21
  55633.564     5.082E-21
  55633.638     5.267E-21
  55633.713     5.434E-21
  55633.787     5.629E-21
  55633.861     5.893E-21
  55633.936     6.118E-21
  55634.010     6.387E-21
  55634.084     6.637E-21
  55634.159     6.878E-21
  55634.233     7.178E-21
  55634.307     7.569E-21
  55634.381     7.778E-21
  55634.456     8.093E-21
  55634.530     8.470E-21
  55634.604     8.890E-21
  55634.679     9.637E-21
  55634.753     1.017E-20
  55634.839     1.695E-20
  55634.954     2.124E-20
  55635.019     2.413E-20
  55635.109     2.374E-20
  55635.199     2.145E-20
  55635.289     1.885E-20
  55635.379     1.834E-20
  55635.469     1.868E-20
  55635.559     1.927E-20
  55635.674     2.075E-20
  55635.739     2.139E-20
  55635.829     2.141E-20
  55635.944     2.131E-20
  55636.009     2.005E-20
  55636.099     1.899E-20
  55636.189     1.969E-20
  55636.279     2.067E-20
  55636.394     2.182E-20
  55636.484     2.392E-20
  55636.573     2.750E-20
  55636.663     3.431E-20
  55636.753     4.355E-20
  55636.843     5.497E-20
  55636.916     7.101E-20
  55637.007     8.892E-20
  55637.097     1.048E-19
  55637.190     1.130E-19
  55637.280     1.037E-19
  55637.365     8.331E-20
  55637.455     6.646E-20
  55637.547     5.839E-20
  55637.653     5.111E-20
  55637.725     4.979E-20
  55637.833     5.039E-20
  55637.923     5.258E-20
  55637.995     5.574E-20
  55638.085     5.875E-20
  55638.175     6.340E-20
  55638.265     6.592E-20
  55638.355     7.171E-20
  55638.445     8.383E-20
  55638.539     9.845E-20
  55638.629     1.131E-19
  55638.719     1.262E-19
  55638.809     1.502E-19
  55638.889     1.894E-19
  55638.979     2.350E-19
  55639.069     2.836E-19
  55639.159     3.477E-19
  55639.264     4.132E-19
  55639.354     4.439E-19
  55639.444     4.383E-19
  55639.534     4.156E-19
  55639.623     3.892E-19
  55639.713     3.530E-19
  55639.789     3.131E-19
  55639.878     2.818E-19
  55639.968     2.646E-19
  55640.058     2.645E-19
  55640.148     2.787E-19
  55640.238     3.013E-19
  55640.343     3.282E-19
  55640.433     3.569E-19
  55640.523     3.899E-19
  55640.613     4.367E-19
  55640.703     4.722E-19
  55640.793     4.577E-19
  55640.883     4.242E-19
  55640.973     4.116E-19
  55641.063     3.960E-19
  55641.153     3.781E-19
  55641.242     3.541E-19
  55641.332     3.365E-19
  55641.422     3.052E-19
  55641.497     2.663E-19
  55641.587     2.351E-19
  55641.668     1.983E-19
  55641.777     1.652E-19
  55641.867     1.400E-19
  55641.957     1.190E-19
  55642.047     1.060E-19
  55642.137     9.516E-20
  55642.226     7.747E-20
  55642.312     6.455E-20
  55642.402     5.955E-20
  55642.492     5.635E-20
  55642.600     5.063E-20
  55642.672     4.545E-20
  55642.780     4.099E-20
  55642.870     3.855E-20
  55642.960     3.681E-20
  55643.049     3.401E-20
  55643.139     3.161E-20
  55643.229     3.109E-20
  55643.319     3.034E-20
  55643.409     2.860E-20
  55643.499     2.842E-20
  55643.589     2.804E-20
  55643.679     2.709E-20
  55643.769     2.584E-20
  55643.834     2.453E-20
  55643.924     2.287E-20
  55644.014     2.173E-20
  55644.104     2.089E-20
  55644.194     2.029E-20
  55644.284     1.785E-20
  55644.374     1.612E-20
  55644.464     1.537E-20
  55644.553     1.467E-20
  55644.643     1.402E-20
  55644.733     1.309E-20
  55644.860     1.076E-20
  55644.934     1.064E-20
  55645.008     1.057E-20
  55645.083     1.053E-20
  55645.157     1.055E-20
  55645.231     1.032E-20
  55645.306     1.011E-20
  55645.380     9.880E-21
  55645.454     9.598E-21
  55645.529     9.272E-21
  55645.603     8.891E-21
  55645.677     8.509E-21
  55645.752     8.235E-21
  55645.826     8.031E-21
  55645.900     7.908E-21
  55645.975     7.989E-21
  55646.049     7.944E-21
  55646.123     7.751E-21
  55646.198     7.588E-21
  55646.272     7.403E-21
  55646.346     7.225E-21
  55646.421     7.017E-21
  55646.495     6.961E-21
  55646.569     6.911E-21
  55646.644     6.758E-21
  55646.718     6.658E-21
  55646.792     6.619E-21
  55646.867     6.642E-21
  55646.941     6.692E-21
  55647.015     6.629E-21
  55647.090     6.686E-21
  55647.164     6.860E-21
  55647.238     6.916E-21
  55647.313     6.966E-21
  55647.387     6.938E-21
  55647.461     6.995E-21
  55647.536     7.338E-21
  55647.610     7.749E-21
  55647.684     8.259E-21
  55647.759     8.705E-21
  55647.833     9.227E-21
  55647.907     9.711E-21
  55647.971     1.177E-20
  55648.061     1.243E-20
  55648.151     1.336E-20
  55648.241     1.353E-20
  55648.331     1.310E-20
  55648.421     1.357E-20
  55648.511     1.295E-20
  55648.601     1.065E-20
  55648.691     8.599E-21
  55648.781     7.593E-21
  55648.874     7.646E-21
  55648.948     7.514E-21
  55649.022     7.478E-21
  55649.097     7.429E-21
  55649.171     7.350E-21
  55649.245     7.280E-21
  55649.320     7.044E-21
  55649.394     6.983E-21
  55649.468     6.868E-21
  55649.543     6.749E-21
  55649.617     6.668E-21
  55649.691     6.671E-21
  55649.766     6.501E-21
  55649.840     6.236E-21
  55649.915     6.180E-21
  55649.989     6.194E-21
  55650.063     6.275E-21
  55650.138     6.359E-21
  55650.212     6.494E-21
  55650.286     6.521E-21
  55650.361     6.560E-21
  55650.435     6.639E-21
  55650.509     6.628E-21
  55650.584     6.570E-21
  55650.658     6.659E-21
  55650.732     6.849E-21
  55650.807     6.994E-21
  55650.881     7.106E-21
  55650.955     7.080E-21
  55651.030     7.138E-21
  55651.104     7.255E-21
  55651.178     7.394E-21
  55651.253     7.547E-21
  55651.327     7.656E-21
  55651.401     7.860E-21
  55651.476     8.201E-21
  55651.550     8.555E-21
  55651.624     8.903E-21
  55651.699     9.134E-21
  55651.773     9.337E-21
  55651.847     9.550E-21
  55651.922     9.679E-21
  55651.996     9.913E-21
  55652.070     1.009E-20
  55652.145     1.020E-20
  55652.219     1.043E-20
  55652.294     1.080E-20
  55652.368     1.121E-20
  55652.468     1.126E-20
  55652.558     1.212E-20
  55652.648     1.270E-20
  55652.738     1.302E-20
  55652.827     1.396E-20
  55652.917     1.529E-20
  55653.007     1.641E-20
  55653.097     1.797E-20
  55653.187     1.924E-20
  55653.302     2.043E-20
  55653.367     1.972E-20
  55653.457     1.998E-20
  55653.547     2.233E-20
  55653.662     2.543E-20
  55653.752     2.641E-20
  55653.842     2.841E-20
  55653.932     3.121E-20
  55654.021     3.118E-20
  55654.111     3.160E-20
  55654.201     3.573E-20
  55654.291     4.059E-20
  55654.381     4.405E-20
  55654.454     5.031E-20
  55654.543     5.683E-20
  55654.633     6.372E-20
  55654.723     7.334E-20
  55654.813     8.653E-20
  55654.907     1.081E-19
  55654.997     1.344E-19
  55655.090     1.728E-19
  55655.168     2.165E-19
  55655.258     2.746E-19
  55655.348     3.539E-19
  55655.452     4.305E-19
  55655.542     4.660E-19
  55655.632     4.672E-19
  55655.722     4.443E-19
  55655.812     4.086E-19
  55655.902     3.695E-19
  55655.977     3.463E-19
  55656.082     3.530E-19
  55656.172     3.731E-19
  55656.262     3.960E-19
  55656.352     4.376E-19
  55656.442     4.842E-19
  55656.531     5.080E-19
  55656.621     5.281E-19
  55656.711     5.410E-19
  55656.801     5.359E-19
  55656.891     5.078E-19
  55656.981     4.561E-19
  55657.071     3.859E-19
  55657.161     3.249E-19
  55657.236     2.856E-19
  55657.326     2.404E-19
  55657.425     1.903E-19
  55657.515     1.552E-19
  55657.605     1.321E-19
  55657.695     1.154E-19
  55657.785     9.648E-20
  55657.874     8.387E-20
  55657.961     7.551E-20
  55658.051     6.607E-20
  55658.141     5.892E-20
  55658.230     5.392E-20
  55658.320     4.975E-20
  55658.428     4.552E-20
  55658.500     4.251E-20
  55658.608     3.833E-20
  55658.698     3.579E-20
  55658.788     3.395E-20
  55658.877     3.012E-20
  55658.967     2.756E-20
  55659.138     2.096E-20
  55660.046     1.155E-20
  55660.770     9.714E-21
  55660.845     9.480E-21
  55660.919     9.225E-21
  55660.993     9.015E-21
  55661.068     8.787E-21
  55661.142     8.562E-21
  55661.217     8.340E-21
  55661.291     8.071E-21
  55661.365     7.937E-21
  55661.440     7.806E-21
  55661.514     7.615E-21
  55661.588     7.534E-21
  55661.663     7.455E-21
  55661.737     7.426E-21
  55661.812     7.432E-21
  55661.886     7.446E-21
  55661.960     7.421E-21
  55662.035     7.379E-21
  55662.109     7.264E-21
  55662.183     7.122E-21
  55662.258     7.122E-21
  55662.332     6.947E-21
  55662.406     6.865E-21
  55662.481     6.851E-21
  55662.555     6.823E-21
  55662.630     6.802E-21
  55662.704     6.769E-21
  55662.778     6.845E-21
  55662.853     6.809E-21
  55662.927     6.799E-21
  55663.001     6.880E-21
  55663.076     6.661E-21
  55663.150     6.507E-21
  55663.225     6.246E-21
  55663.299     6.111E-21
  55663.373     5.893E-21
  55663.448     5.660E-21
  55663.522     5.454E-21
  55663.596     5.326E-21
  55663.671     5.239E-21
  55663.745     5.152E-21
  55663.820     5.040E-21
  55663.894     4.918E-21
  55663.968     4.864E-21
  55664.043     4.802E-21
  55664.117     4.727E-21
  55664.191     4.628E-21
  55664.266     4.547E-21
  55664.340     4.433E-21
  55664.415     4.401E-21
  55664.489     4.404E-21
  55664.563     4.412E-21
  55664.638     4.448E-21
  55664.712     4.479E-21
  55664.787     4.453E-21
  55664.861     4.442E-21
  55664.935     4.365E-21
  55665.010     4.314E-21
  55665.084     4.301E-21
  55665.158     4.272E-21
  55665.233     4.359E-21
  55665.307     4.440E-21
  55665.382     4.499E-21
  55665.456     4.545E-21
  55665.530     4.657E-21
  55665.605     4.809E-21
  55665.679     4.934E-21
  55665.753     5.073E-21
  55665.828     5.119E-21
  55665.902     5.126E-21
  55665.977     5.117E-21
  55666.051     5.030E-21
  55666.125     4.875E-21
  55666.200     4.684E-21
  55666.274     4.494E-21
  55666.349     4.313E-21
  55666.423     4.164E-21
  55666.497     4.059E-21
  55666.572     3.993E-21
  55666.646     3.923E-21
  55666.720     3.851E-21
  55666.795     3.775E-21
  55666.869     3.717E-21
  55666.944     3.701E-21
  55667.018     3.699E-21
  55667.092     3.695E-21
  55667.167     3.695E-21
  55667.241     3.683E-21
  55667.316     3.654E-21
  55667.390     3.626E-21
  55667.464     3.598E-21
  55667.539     3.608E-21
  55667.613     3.634E-21
  55667.687     3.643E-21
  55667.762     3.665E-21
  55667.836     3.705E-21
  55667.911     3.761E-21
  55667.985     3.815E-21
  55668.059     3.867E-21
  55668.134     3.945E-21
  55668.208     4.002E-21
  55668.283     4.016E-21
  55668.357     4.079E-21
  55668.431     4.168E-21
  55668.506     4.166E-21
  55668.580     4.107E-21
  55668.655     4.089E-21
  55668.729     4.164E-21
  55668.803     4.228E-21
  55668.878     4.298E-21
  55668.952     4.351E-21
  55669.026     4.457E-21
  55669.101     4.539E-21
  55669.175     4.520E-21
  55669.250     4.524E-21
  55669.324     4.440E-21
  55669.398     4.328E-21
  55669.472     4.210E-21
  55669.546     4.095E-21
  55669.621     4.047E-21
  55669.695     3.967E-21
  55669.769     3.890E-21
  55669.844     3.883E-21
  55669.918     3.873E-21
  55669.993     3.886E-21
  55670.067     3.912E-21
  55670.141     3.918E-21
  55670.215     3.927E-21
  55670.289     3.965E-21
  55670.364     4.011E-21
  55670.438     4.090E-21
  55670.512     4.188E-21
  55670.587     4.240E-21
  55670.661     4.338E-21
  55670.735     4.412E-21
  55670.810     4.509E-21
  55670.884     4.627E-21
  55670.958     4.710E-21
  55671.032     4.739E-21
  55671.106     4.734E-21
  55671.181     4.699E-21
  55671.255     4.671E-21
  55671.330     4.683E-21
  55671.403     4.762E-21
  55671.478     4.873E-21
  55671.552     4.906E-21
  55671.627     4.898E-21
  55671.701     4.909E-21
  55671.775     4.923E-21
  55671.849     4.916E-21
  55671.924     4.879E-21
  55671.998     4.821E-21
  55672.072     4.709E-21
  55672.146     4.575E-21
  55672.220     4.464E-21
  55672.295     4.350E-21
  55672.369     4.268E-21
  55672.444     4.195E-21
  55672.518     4.111E-21
  55672.592     4.077E-21
  55672.667     4.068E-21
  55672.740     4.046E-21
  55672.815     4.004E-21
  55672.889     3.980E-21
  55672.963     3.995E-21
  55673.037     4.016E-21
  55673.112     4.027E-21
  55673.186     4.039E-21
  55673.261     4.050E-21
  55673.335     4.069E-21
  55673.409     4.123E-21
  55673.483     4.146E-21
  55673.557     4.196E-21
  55673.631     4.232E-21
  55673.706     4.231E-21
  55673.780     4.254E-21
  55673.854     4.299E-21
  55673.929     4.369E-21
  55674.003     4.426E-21
  55674.077     4.533E-21
  55674.151     4.547E-21
  55674.225     4.560E-21
  55674.300     4.579E-21
  55674.374     4.607E-21
  55674.448     4.659E-21
  55674.523     4.699E-21
  55674.597     4.728E-21
  55674.672     4.760E-21
  55674.745     4.832E-21
  55674.819     4.959E-21
  55674.894     4.978E-21
  55674.968     5.080E-21
  55675.042     5.151E-21
  55675.117     5.211E-21
  55675.191     5.310E-21
  55675.265     5.438E-21
  55675.340     5.614E-21
  55675.414     5.780E-21
  55675.489     5.953E-21
  55675.563     6.149E-21
  55675.637     6.329E-21
  55675.712     6.449E-21
  55675.786     6.509E-21
  55675.860     6.629E-21
  55675.935     6.831E-21
  55676.009     6.896E-21
  55676.084     6.894E-21
  55676.158     6.845E-21
  55676.232     6.830E-21
  55676.307     6.954E-21
  55676.381     7.266E-21
  55676.455     7.431E-21
  55676.530     7.607E-21
  55676.604     7.790E-21
  55676.679     7.820E-21
  55676.753     7.908E-21
  55676.827     8.054E-21
  55676.902     8.234E-21
  55676.976     8.567E-21
  55677.050     8.958E-21
  55677.125     9.440E-21
  55677.199     9.868E-21
  55677.274     1.024E-20
  55677.348     1.043E-20
  55678.210     1.641E-20
  55679.029     2.426E-20
  55679.669     3.983E-20
  55679.788     4.345E-20
  55679.878     4.533E-20
  55679.968     4.724E-20
  55680.049     5.433E-20
  55680.139     6.281E-20
  55680.229     7.332E-20
  55680.319     8.972E-20
  55680.409     1.115E-19
  55680.487     1.361E-19
  55680.577     1.779E-19
  55680.649     2.404E-19
  55680.739     3.030E-19
  55680.829     3.502E-19
  55680.909     3.937E-19
  55680.999     4.400E-19
  55681.089     4.784E-19
  55681.179     4.953E-19
  55681.269     4.814E-19
  55681.359     4.481E-19
  55681.449     3.995E-19
  55681.550     3.508E-19
  55681.640     3.268E-19
  55681.730     3.232E-19
  55681.820     3.281E-19
  55681.910     3.436E-19
  55681.990     3.788E-19
  55682.080     4.119E-19
  55682.170     4.634E-19
  55682.260     5.072E-19
  55682.350     5.323E-19
  55682.440     5.451E-19
  55682.530     5.334E-19
  55682.620     5.281E-19
  55682.711     5.140E-19
  55682.801     4.881E-19
  55682.891     4.361E-19
  55682.981     3.909E-19
  55683.071     3.730E-19
  55683.171     3.559E-19
  55683.251     3.240E-19
  55683.352     2.789E-19
  55683.442     2.333E-19
  55683.542     1.978E-19
  55683.632     1.695E-19
  55683.730     1.417E-19
  55683.820     1.225E-19
  55683.910     1.112E-19
  55684.012     9.936E-20
  55684.090     9.047E-20
  55684.193     8.604E-20
  55684.283     8.497E-20
  55684.373     8.117E-20
  55684.463     7.848E-20
  55684.553     7.840E-20
  55684.643     8.407E-20
  55684.733     9.401E-20
  55684.811     1.019E-19
  55684.901     1.004E-19
  55685.003     9.009E-20
  55685.094     7.757E-20
  55685.184     6.530E-20
  55685.274     5.508E-20
  55685.373     4.645E-20
  55685.463     4.118E-20
  55685.553     3.767E-20
  55685.644     3.302E-20
  55685.734     3.147E-20
  55685.824     3.041E-20
  55685.914     3.220E-20
  55686.004     3.822E-20
  55686.085     4.648E-20
  55686.184     5.185E-20
  55686.265     5.272E-20
  55686.364     4.499E-20
  55686.454     3.587E-20
  55686.544     3.073E-20
  55686.635     2.529E-20
  55686.725     1.865E-20
  55686.815     1.557E-20
  55686.905     1.499E-20
  55686.995     1.349E-20
  55687.085     1.372E-20
  55687.175     1.520E-20
  55687.265     1.459E-20
  55687.298     1.294E-20
  55687.688     1.175E-20
  55687.762     1.163E-20
  55687.837     1.154E-20
  55687.911     1.126E-20
  55687.986     1.101E-20
  55688.060     1.095E-20
  55688.134     1.095E-20
  55688.209     1.066E-20
  55688.283     1.051E-20
  55688.358     1.046E-20
  55688.432     1.039E-20
  55688.506     1.034E-20
  55688.581     1.030E-20
  55688.655     1.013E-20
  55688.730     1.012E-20
  55688.804     1.011E-20
  55688.879     1.002E-20
  55688.953     1.022E-20
  55689.027     1.033E-20
  55689.102     1.032E-20
  55689.176     1.053E-20
  55689.934     1.837E-20
  55690.059     2.341E-20
  55690.149     2.726E-20
  55690.239     3.210E-20
  55690.329     4.077E-20
  55690.419     4.581E-20
  55690.500     4.218E-20
  55690.599     3.475E-20
  55690.689     2.810E-20
  55690.779     2.241E-20
  55690.870     2.145E-20
  55690.960     2.099E-20
  55691.050     1.874E-20
  55691.140     1.549E-20
  55691.230     1.141E-20
  55691.320     1.081E-20
  55691.410     1.363E-20
  55691.500     1.415E-20
  55691.591     1.546E-20
  55691.681     1.652E-20
  55691.771     1.526E-20
  55691.861     1.706E-20
  55691.951     1.980E-20
  55692.041     2.256E-20
  55692.131     2.759E-20
  55692.221     3.170E-20
  55692.311     3.630E-20
  55692.402     4.194E-20
  55692.492     5.087E-20
  55692.572     5.644E-20
  55692.663     5.925E-20
  55692.753     5.933E-20
  55692.843     5.703E-20
  55692.942     5.364E-20
  55693.023     5.329E-20
  55693.123     5.469E-20
  55693.203     5.255E-20
  55693.303     5.320E-20
  55693.393     5.658E-20
  55693.474     6.017E-20
  55693.564     6.625E-20
  55693.654     7.408E-20
  55693.744     8.513E-20
  55693.834     9.864E-20
  55693.912     1.212E-19
  55694.002     1.495E-19
  55694.084     1.849E-19
  55694.164     2.361E-19
  55694.254     2.954E-19
  55694.334     3.710E-19
  55694.424     4.458E-19
  55694.514     5.085E-19
  55694.605     5.558E-19
  55694.695     5.534E-19
  55694.785     5.142E-19
  55694.875     4.989E-19
  55694.965     4.878E-19
  55695.055     4.667E-19
  55695.145     4.570E-19
  55695.235     4.812E-19
  55695.326     5.464E-19
  55695.416     6.100E-19
  55695.506     6.410E-19
  55695.596     6.480E-19
  55695.686     6.462E-19
  55695.776     6.228E-19
  55695.866     5.733E-19
  55695.956     5.065E-19
  55696.057     4.129E-19
  55696.147     3.411E-19
  55696.237     2.845E-19
  55696.327     2.327E-19
  55696.428     1.831E-19
  55696.526     1.453E-19
  55696.616     1.232E-19
  55696.718     1.075E-19
  55696.808     9.348E-20
  55696.899     8.219E-20
  55696.989     7.364E-20
  55697.079     6.886E-20
  55697.169     6.378E-20
  55697.259     5.693E-20
  55697.349     5.186E-20
  55697.449     4.768E-20
  55697.539     4.485E-20
  55697.629     3.860E-20
  55697.900     3.164E-20
  55698.116     2.352E-20
  55699.116     1.228E-20
  55699.446     1.129E-20
  55699.521     1.104E-20
  55699.595     1.086E-20
  55699.669     1.037E-20
  55699.744     1.008E-20
  55699.818     9.745E-21
  55699.893     9.344E-21
  55699.967     9.112E-21
  55700.042     9.069E-21
  55700.116     9.146E-21
  55700.190     8.957E-21
  55700.265     8.775E-21
  55700.339     8.542E-21
  55700.414     8.334E-21
  55700.488     8.142E-21
  55700.563     8.107E-21
  55700.637     7.914E-21
  55700.712     7.760E-21
  55700.786     7.506E-21
  55700.860     7.378E-21
  55700.935     7.266E-21
  55701.009     7.126E-21
  55701.084     7.067E-21
  55701.158     6.996E-21
  55701.233     6.992E-21
  55701.307     6.995E-21
  55701.381     6.930E-21
  55701.456     6.875E-21
  55701.530     6.834E-21
  55701.605     6.776E-21
  55701.679     6.449E-21
  55701.754     6.284E-21
  55701.828     6.338E-21
  55701.903     6.289E-21
  55701.977     6.265E-21
  55702.051     6.144E-21
  55702.126     5.961E-21
  55702.199     5.962E-21
  55702.274     5.952E-21
  55702.348     5.884E-21
  55702.422     5.954E-21
  55702.496     5.990E-21
  55702.569     5.932E-21
  55702.644     5.873E-21
  55702.718     5.847E-21
  55702.792     5.778E-21
  55702.866     5.695E-21
  55702.940     5.640E-21
  55703.014     5.663E-21
  55703.089     5.665E-21
  55703.162     5.694E-21
  55703.236     5.705E-21
  55703.311     5.650E-21
  55703.384     5.641E-21
  55703.459     5.599E-21
  55703.533     5.481E-21
  55703.607     5.387E-21
  55703.681     5.325E-21
  55703.755     5.250E-21
  55703.829     5.204E-21
  55703.903     5.189E-21
  55703.977     5.191E-21
  55704.051     5.208E-21
  55704.126     5.206E-21
  55704.199     5.152E-21
  55704.274     5.070E-21
  55704.347     5.006E-21
  55704.422     5.013E-21
  55704.496     5.069E-21
  55704.569     5.088E-21
  55704.644     5.064E-21
  55704.717     5.017E-21
  55704.792     4.965E-21
  55704.866     4.919E-21
  55704.940     4.910E-21
  55705.014     4.922E-21
  55705.088     4.930E-21
  55705.162     4.954E-21
  55705.236     4.969E-21
  55705.310     4.959E-21
  55705.384     4.928E-21
  55705.459     4.877E-21
  55705.532     4.831E-21
  55705.606     4.852E-21
  55705.681     4.946E-21
  55705.755     5.037E-21
  55705.829     5.195E-21
  55705.903     5.417E-21
  55705.977     5.628E-21
  55706.051     5.774E-21
  55706.125     5.883E-21
  55706.199     5.884E-21
  55706.273     5.816E-21
  55706.347     5.705E-21
  55706.421     5.571E-21
  55706.495     5.441E-21
  55706.569     5.302E-21
  55706.643     5.207E-21
  55706.717     5.178E-21
  55706.791     5.134E-21
  55706.866     5.128E-21
  55706.939     5.136E-21
  55707.014     5.110E-21
  55707.088     5.097E-21
  55707.161     5.060E-21
  55707.236     5.080E-21
  55707.309     5.111E-21
  55707.384     5.159E-21
  55707.458     5.176E-21
  55707.532     5.167E-21
  55707.606     5.188E-21
  55707.680     5.210E-21
  55707.754     5.271E-21
  55707.828     5.230E-21
  55707.902     5.224E-21
  55708.051     5.201E-21
  55708.125     5.238E-21
  55708.200     5.296E-21
  55708.274     5.399E-21
  55708.348     5.411E-21
  55708.423     5.453E-21
  55708.497     5.477E-21
  55708.572     5.509E-21
  55708.646     5.535E-21
  55708.721     5.577E-21
  55708.795     5.564E-21
  55708.870     5.586E-21
  55708.944     5.619E-21
  55709.018     5.597E-21
  55709.093     5.656E-21
  55709.167     5.716E-21
  55709.242     5.788E-21
  55709.316     5.824E-21
  55709.391     5.895E-21
  55709.465     5.884E-21
  55709.540     5.950E-21
  55709.614     6.006E-21
  55709.688     6.053E-21
  55709.763     6.133E-21
  55709.837     6.116E-21
  55709.912     6.186E-21
  55709.986     6.371E-21
  55710.061     6.565E-21
  55710.135     6.634E-21
  55710.210     6.699E-21
  55710.284     6.717E-21
  55710.358     6.712E-21
  55710.433     6.850E-21
  55710.507     6.931E-21
  55710.582     6.999E-21
  55710.656     7.055E-21
  55710.731     7.176E-21
  55710.805     7.365E-21
  55710.880     7.552E-21
  55710.954     7.792E-21
  55711.028     8.028E-21
  55711.103     8.308E-21
  55711.177     8.572E-21
  55711.252     8.679E-21
  55711.326     8.799E-21
  55711.401     8.935E-21
  55711.475     9.027E-21
  55711.550     9.088E-21
  55711.624     9.320E-21
  55711.698     9.481E-21
  55711.773     9.638E-21
  55711.847     9.872E-21
  55711.922     1.029E-20
  55711.996     1.063E-20
  55712.071     1.083E-20
  55712.145     1.102E-20
  55712.759     1.551E-20
  55713.578     3.179E-20
  55714.219     5.709E-20
  55714.301     6.046E-20
  55714.391     7.364E-20
  55714.482     9.389E-20
  55714.559     1.205E-19
  55714.650     1.564E-19
  55714.729     2.035E-19
  55714.812     2.452E-19
  55714.902     2.672E-19
  55714.992     2.806E-19
  55715.083     2.797E-19
  55715.173     2.773E-19
  55715.263     2.968E-19
  55715.353     3.387E-19
  55715.433     3.949E-19
  55715.523     4.551E-19
  55715.613     5.132E-19
  55715.704     5.439E-19
  55715.794     5.734E-19
  55715.884     5.891E-19
  55715.974     5.600E-19
  55716.064     5.041E-19
  55716.155     4.629E-19
  55716.245     4.476E-19
  55716.335     4.559E-19
  55716.425     4.788E-19
  55716.516     5.233E-19
  55716.606     5.758E-19
  55716.696     6.397E-19
  55716.786     7.183E-19
  55716.873     7.756E-19
  55716.963     7.651E-19
  55717.054     7.417E-19
  55717.144     7.291E-19
  55717.234     6.828E-19
  55717.327     6.160E-19
  55717.418     5.438E-19
  55717.508     4.578E-19
  55717.609     3.830E-19
  55717.699     3.245E-19
  55717.789     2.859E-19
  55717.879     2.658E-19
  55717.969     2.646E-19
  55718.060     2.596E-19
  55718.150     2.541E-19
  55718.240     2.362E-19
  55718.337     2.053E-19
  55718.430     1.784E-19
  55718.529     1.481E-19
  55718.619     1.201E-19
  55718.709     9.624E-20
  55718.812     8.025E-20
  55718.889     7.433E-20
  55718.992     6.630E-20
  55719.037     4.443E-20
  55719.947     2.224E-20
  55720.948     1.621E-20
  55721.858     1.453E-20
  55722.768     1.407E-20
  55723.678     1.746E-20
  55724.498     2.856E-20
  55724.506     3.038E-20
  55724.596     3.271E-20
  55724.686     3.167E-20
  55724.776     3.395E-20
  55724.866     3.651E-20
  55724.957     3.741E-20
  55725.047     3.668E-20
  55725.137     3.537E-20
  55725.227     3.873E-20
  55725.318     4.576E-20
  55725.399     5.061E-20
  55725.498     5.254E-20
  55725.579     5.681E-20
  55725.669     6.128E-20
  55725.759     6.629E-20
  55725.850     7.479E-20
  55725.940     9.063E-20
  55726.030     1.113E-19
  55726.108     1.339E-19
  55726.190     1.609E-19
  55726.281     1.927E-19
  55726.361     2.411E-19
  55726.451     2.950E-19
  55726.531     3.555E-19
  55726.621     4.420E-19
  55726.711     5.186E-19
  55726.802     5.428E-19
  55726.892     5.658E-19
  55726.982     5.668E-19
  55727.072     5.455E-19
  55727.163     5.231E-19
  55727.253     5.119E-19
  55727.343     5.254E-19
  55727.433     5.548E-19
  55727.524     6.017E-19
  55727.614     6.393E-19
  55727.701     6.696E-19
  55727.791     6.766E-19
  55727.885     6.507E-19
  55727.975     6.216E-19
  55728.065     5.610E-19
  55728.155     4.528E-19
  55728.256     3.568E-19
  55728.346     2.874E-19
  55728.437     2.319E-19
  55728.534     1.884E-19
  55728.635     1.557E-19
  55728.725     1.305E-19
  55728.815     1.076E-19
  55728.918     8.939E-20
  55729.008     7.785E-20
  55729.099     7.396E-20
  55729.189     7.135E-20
  55729.279     6.596E-20
  55729.379     5.946E-20
  55729.460     5.759E-20
  55729.550     5.507E-20
  55729.640     5.151E-20
  55729.731     4.646E-20
  55729.830     4.011E-20
  55729.920     3.559E-20
  55730.011     3.148E-20
  55730.101     2.895E-20
  55730.191     2.625E-20
  55730.282     2.393E-20
  55730.372     2.495E-20
  55730.462     2.621E-20
  55730.552     2.409E-20
  55730.643     2.251E-20
  55730.733     2.350E-20
  55730.823     2.316E-20
  55730.913     2.253E-20
  55731.004     1.855E-20
  55731.094     1.641E-20
  55731.184     1.657E-20
  55731.274     1.547E-20
  55731.365     1.414E-20
  55731.455     1.459E-20
  55731.545     1.490E-20
  55731.635     1.498E-20
  55731.726     1.635E-20
  55731.816     1.906E-20
  55731.906     2.139E-20
  55731.997     2.252E-20
  55732.087     2.791E-20
  55732.177     3.548E-20
  55732.267     4.082E-20
  55732.358     4.296E-20
  55732.448     4.022E-20
  55732.538     3.176E-20
  55732.628     2.668E-20
  55732.719     2.282E-20
  55732.782     1.609E-20
  55733.892     7.520E-21
  55733.967     7.508E-21
  55734.041     7.428E-21
  55734.116     7.417E-21
  55734.190     7.296E-21
  55734.265     7.191E-21
  55734.339     7.176E-21
  55734.414     7.205E-21
  55734.488     7.325E-21
  55734.563     7.259E-21
  55734.637     7.126E-21
  55734.712     7.077E-21
  55734.786     7.006E-21
  55734.861     7.062E-21
  55734.935     7.043E-21
  55735.010     7.006E-21
  55735.084     6.978E-21
  55735.159     7.033E-21
  55735.233     7.003E-21
  55735.308     6.964E-21
  55735.382     6.976E-21
  55735.457     7.035E-21
  55735.531     7.139E-21
  55735.606     7.260E-21
  55735.680     7.258E-21
  55735.755     7.200E-21
  55735.829     7.310E-21
  55735.904     7.479E-21
  55735.979     7.515E-21
  55736.053     7.762E-21
  55736.128     7.939E-21
  55736.202     8.392E-21
  55736.424     1.427E-20
  55736.691     1.750E-20
  55736.781     2.286E-20
  55736.871     3.000E-20
  55736.962     3.616E-20
  55737.052     3.823E-20
  55737.142     3.417E-20
  55737.233     2.832E-20
  55737.335     1.405E-20
  55737.543     1.043E-20
  55737.618     1.017E-20
  55737.692     9.681E-21
  55737.767     9.317E-21
  55737.841     9.128E-21
  55737.916     9.043E-21
  55737.990     8.916E-21
  55738.065     8.978E-21
  55738.139     8.950E-21
  55738.214     8.900E-21
  55738.288     9.078E-21
  55738.363     9.109E-21
  55738.437     9.121E-21
  55738.512     9.381E-21
  55738.586     9.635E-21
  55738.661     9.956E-21
  55738.736     1.032E-20
  55738.810     1.057E-20
  55739.065     1.836E-20
  55739.309     1.979E-20
  55739.400     2.312E-20
  55739.490     2.771E-20
  55739.580     3.539E-20
  55739.670     4.146E-20
  55739.761     4.036E-20
  55739.851     3.709E-20
  55739.941     3.188E-20
  55740.032     2.693E-20
  55740.122     2.434E-20
  55740.212     2.065E-20
  55740.303     1.720E-20
  55740.393     1.733E-20
  55740.483     2.005E-20
  55740.573     2.211E-20
  55740.664     2.199E-20
  55740.754     2.142E-20
  55740.844     2.112E-20
  55740.935     2.146E-20
  55741.025     2.481E-20
  55741.115     2.852E-20
  55741.206     2.817E-20
  55741.296     2.682E-20
  55741.386     2.739E-20
  55741.476     2.894E-20
  55741.567     2.968E-20
  55741.657     2.748E-20
  55741.747     2.782E-20
  55741.838     3.333E-20
  55741.919     4.053E-20
  55742.018     4.344E-20
  55742.099     4.583E-20
  55742.199     4.900E-20
  55742.280     5.609E-20
  55742.370     6.252E-20
  55742.460     6.653E-20
  55742.551     7.486E-20
  55742.641     9.230E-20
  55742.719     1.158E-19
  55742.809     1.344E-19
  55742.899     1.548E-19
  55742.979     1.863E-19
  55743.062     2.350E-19
  55743.152     3.044E-19
  55743.232     3.682E-19
  55743.323     4.372E-19
  55743.413     5.114E-19
  55743.503     5.600E-19
  55743.593     5.920E-19
  55743.684     5.793E-19
  55743.774     5.268E-19
  55743.864     5.000E-19
  55743.955     5.048E-19
  55744.045     5.149E-19
  55744.135     5.518E-19
  55744.226     5.953E-19
  55744.316     6.283E-19
  55744.403     6.546E-19
  55744.493     7.116E-19
  55744.584     7.276E-19
  55744.677     6.631E-19
  55744.768     5.919E-19
  55744.858     5.323E-19
  55744.948     4.604E-19
  55745.049     3.689E-19
  55745.139     2.965E-19
  55745.230     2.477E-19
  55745.330     2.104E-19
  55745.420     1.784E-19
  55745.518     1.432E-19
  55745.609     1.168E-19
  55745.712     9.470E-20
  55745.802     8.032E-20
  55745.892     7.233E-20
  55745.983     6.795E-20
  55746.073     6.693E-20
  55746.163     6.194E-20
  55746.254     5.751E-20
  55746.344     5.431E-20
  55746.444     5.218E-20
  55746.534     4.922E-20
  55746.615     4.305E-20
  55746.715     3.668E-20
  55746.805     3.442E-20
  55746.895     3.152E-20
  55746.986     3.168E-20
  55747.076     3.204E-20
  55747.166     3.055E-20
  55747.256     2.999E-20
  55747.347     2.672E-20
  55747.437     2.387E-20
  55747.527     2.119E-20
  55747.618     1.946E-20
  55747.708     2.113E-20
  55747.798     2.343E-20
  55747.889     2.209E-20
  55747.979     1.967E-20
  55748.069     1.676E-20
  55748.160     1.677E-20
  55748.250     1.938E-20
  55748.340     1.851E-20
  55748.431     1.653E-20
  55748.521     1.905E-20
  55748.611     2.464E-20
  55748.702     2.488E-20
  55748.792     2.302E-20
  55748.882     2.305E-20
  55748.973     2.300E-20
  55749.063     2.359E-20
  55749.153     2.811E-20
  55749.244     3.147E-20
  55749.334     2.947E-20
  55749.424     2.755E-20
  55749.515     2.901E-20
  55749.605     3.249E-20
  55749.695     3.604E-20
  55749.786     3.643E-20
  55749.876     3.588E-20
  55749.966     3.839E-20
  55750.057     4.377E-20
  55750.138     4.600E-20
  55750.228     4.344E-20
  55750.328     3.943E-20
  55750.418     3.903E-20
  55750.499     4.353E-20
  55750.599     4.773E-20
  55750.689     5.202E-20
  55750.770     5.827E-20
  55750.860     6.485E-20
  55750.951     7.877E-20
  55751.041     9.477E-20
  55751.119     1.122E-19
  55751.209     1.329E-19
  55751.299     1.661E-19
  55751.372     2.145E-19
  55751.462     2.725E-19
  55751.553     3.325E-19
  55751.632     4.084E-19
  55751.723     4.861E-19
  55751.813     5.117E-19
  55751.903     5.159E-19
  55751.994     5.163E-19
  55752.084     5.002E-19
  55752.174     4.817E-19
  55752.265     4.983E-19
  55752.355     5.408E-19
  55752.446     5.857E-19
  55752.536     6.068E-19
  55752.626     6.055E-19
  55752.717     5.807E-19
  55752.807     5.173E-19
  55752.897     4.414E-19
  55752.998     3.580E-19
  55753.088     2.856E-19
  55753.179     2.157E-19
  55753.287     1.684E-19
  55753.369     1.444E-19
  55753.468     1.235E-19
  55753.571     1.071E-19
  55753.661     9.777E-20
  55753.739     8.860E-20
  55753.842     8.015E-20
  55753.932     7.934E-20
  55754.022     8.611E-20
  55754.113     9.510E-20
  55754.190     1.070E-19
  55754.281     1.269E-19
  55754.371     1.549E-19
  55754.462     1.807E-19
  55754.534     1.955E-19
  55754.642     1.799E-19
  55754.733     1.478E-19
  55754.823     1.197E-19
  55754.926     9.499E-20
  55755.004     8.217E-20
  55755.107     7.077E-20
  55755.197     6.402E-20
  55755.287     5.757E-20
  55755.378     5.094E-20
  55755.477     4.583E-20
  55755.568     4.124E-20
  55755.658     3.428E-20
  55755.748     3.040E-20
  55755.839     2.938E-20
  55755.929     2.890E-20
  55756.020     2.889E-20
  55756.110     3.002E-20
  55756.200     3.074E-20
  55756.291     3.037E-20
  55756.381     3.498E-20
  55756.471     4.363E-20
  55756.552     5.275E-20
  55756.643     6.701E-20
  55756.733     8.688E-20
  55756.823     1.119E-19
  55756.901     1.376E-19
  55756.991     1.494E-19
  55757.082     1.519E-19
  55757.172     1.429E-19
  55757.263     1.204E-19
  55757.353     9.871E-20
  55757.456     8.114E-20
  55757.546     6.969E-20
  55757.637     6.462E-20
  55757.727     6.184E-20
  55757.817     6.329E-20
  55757.908     7.337E-20
  55757.985     8.778E-20
  55758.076     9.976E-20
  55758.179     1.106E-19
  55758.269     1.216E-19
  55758.347     1.281E-19
  55758.437     1.275E-19
  55758.528     1.145E-19
  55758.618     9.509E-20
  55758.721     7.820E-20
  55758.811     6.480E-20
  55758.902     5.350E-20
  55759.001     4.395E-20
  55759.092     3.688E-20
  55759.182     3.205E-20
  55759.273     2.913E-20
  55759.363     2.627E-20
  55759.453     2.258E-20
  55759.544     2.184E-20
  55759.634     2.359E-20
  55759.724     2.376E-20
  55759.815     2.253E-20
  55759.905     2.043E-20
  55759.996     2.063E-20
  55760.086     2.030E-20
  55760.176     2.040E-20
  55760.267     2.034E-20
  55760.357     1.946E-20
  55760.447     1.973E-20
  55760.538     2.224E-20
  55760.628     2.371E-20
  55760.719     2.269E-20
  55760.809     2.055E-20
  55760.899     1.975E-20
  55760.990     1.914E-20
  55761.080     2.048E-20
  55761.170     2.072E-20
  55761.261     1.948E-20
  55761.351     1.800E-20
  55761.442     1.869E-20
  55761.532     2.196E-20
  55761.622     2.485E-20
  55761.713     2.376E-20
  55761.803     2.287E-20
  55761.893     2.331E-20
  55761.984     2.413E-20
  55762.074     2.712E-20
  55762.165     3.279E-20
  55762.255     3.641E-20
  55762.345     3.854E-20
  55762.436     4.409E-20
  55762.526     5.179E-20
  55762.607     5.749E-20
  55762.697     5.949E-20
  55762.788     5.969E-20
  55762.878     6.035E-20
  55762.969     6.478E-20
  55763.059     7.141E-20
  55763.149     8.049E-20
  55763.240     9.467E-20
  55763.318     1.114E-19
  55763.420     1.300E-19
  55763.498     1.474E-19
  55763.578     1.714E-19
  55763.661     2.073E-19
  55763.752     2.545E-19
  55763.842     3.182E-19
  55763.922     3.927E-19
  55764.012     4.685E-19
  55764.103     5.380E-19
  55764.193     5.832E-19
  55764.283     5.898E-19
  55764.374     5.762E-19
  55764.464     5.467E-19
  55764.555     5.132E-19
  55764.645     5.112E-19
  55764.735     5.366E-19
  55764.826     5.863E-19
  55764.913     6.284E-19
  55765.003     6.559E-19
  55765.094     6.793E-19
  55765.184     6.670E-19
  55765.278     6.140E-19
  55765.368     5.490E-19
  55765.458     4.630E-19
  55765.559     3.622E-19
  55765.650     2.971E-19
  55765.740     2.544E-19
  55765.830     2.108E-19
  55765.928     1.700E-19
  55766.029     1.495E-19
  55766.120     1.405E-19
  55766.210     1.332E-19
  55766.300     1.234E-19
  55766.391     1.161E-19
  55766.481     1.110E-19
  55766.572     1.017E-19
  55766.674     8.925E-20
  55766.765     8.047E-20
  55766.855     7.422E-20
  55766.946     6.744E-20
  55767.036     6.185E-20
  55767.126     5.753E-20
  55767.217     5.448E-20
  55767.307     5.289E-20
  55767.407     4.946E-20
  55767.498     4.507E-20
  55767.588     4.512E-20
  55767.669     4.953E-20
  55767.769     4.970E-20
  55767.859     4.797E-20
  55767.940     5.039E-20
  55768.030     5.006E-20
  55768.130     4.603E-20
  55768.221     4.681E-20
  55768.302     4.741E-20
  55768.402     4.363E-20
  55768.492     4.069E-20
  55768.582     4.316E-20
  55768.673     4.682E-20
  55768.754     5.055E-20
  55768.844     5.462E-20
  55768.935     6.036E-20
  55769.025     7.001E-20
  55769.115     8.428E-20
  55769.193     9.937E-20
  55769.284     1.171E-19
  55769.374     1.433E-19
  55769.464     1.771E-19
  55769.544     2.166E-19
  55769.617     2.581E-19
  55769.707     3.192E-19
  55769.798     3.678E-19
  55769.899     3.742E-19
  55769.978     3.705E-19
  55770.079     3.523E-19
  55770.170     3.343E-19
  55770.260     3.191E-19
  55770.351     3.177E-19
  55770.441     3.190E-19
  55770.531     3.242E-19
  55770.622     3.199E-19
  55770.712     3.063E-19
  55770.803     2.874E-19
  55770.893     2.745E-19
  55770.983     2.635E-19
  55771.074     2.493E-19
  55771.164     2.231E-19
  55771.265     1.931E-19
  55771.363     1.570E-19
  55771.453     1.250E-19
  55771.556     1.009E-19
  55771.647     8.502E-20
  55771.737     7.371E-20
  55771.828     6.588E-20
  55771.918     6.080E-20
  55772.018     5.352E-20
  55772.108     4.754E-20
  55772.199     4.574E-20
  55772.289     4.880E-20
  55772.370     5.224E-20
  55772.461     5.551E-20
  55772.551     5.996E-20
  55772.641     6.200E-20
  55772.732     6.052E-20
  55772.832     5.660E-20
  55772.922     5.317E-20
  55773.003     4.808E-20
  55773.103     4.102E-20
  55773.193     3.437E-20
  55773.284     3.092E-20
  55773.374     2.623E-20
  55773.465     2.399E-20
  55773.555     2.409E-20
  55773.645     2.040E-20
  55773.787     1.806E-20
  55774.608     1.842E-20
  55774.911     1.972E-20
  55775.002     1.957E-20
  55775.092     2.058E-20
  55775.183     2.219E-20
  55775.273     2.256E-20
  55775.364     2.235E-20
  55775.454     2.451E-20
  55775.544     2.738E-20
  55775.635     2.919E-20
  55775.725     2.722E-20
  55775.816     2.904E-20
  55775.906     3.512E-20
  55775.987     4.366E-20
  55776.087     4.896E-20
  55776.177     4.758E-20
  55776.258     5.006E-20
  55776.349     5.635E-20
  55776.439     6.440E-20
  55776.530     7.379E-20
  55776.620     8.324E-20
  55776.698     9.729E-20
  55776.801     1.075E-19
  55776.891     1.176E-19
  55776.969     1.340E-19
  55777.060     1.515E-19
  55777.150     1.717E-19
  55777.230     2.050E-19
  55777.320     2.475E-19
  55777.404     3.012E-19
  55777.483     3.701E-19
  55777.574     4.303E-19
  55777.664     4.685E-19
  55777.755     4.884E-19
  55777.845     4.758E-19
  55777.936     4.372E-19
  55778.026     4.101E-19
  55778.117     4.155E-19
  55778.207     4.339E-19
  55778.297     4.510E-19
  55778.388     4.671E-19
  55778.478     4.824E-19
  55778.569     4.980E-19
  55778.659     4.914E-19
  55778.750     4.532E-19
  55778.851     3.849E-19
  55778.941     3.308E-19
  55779.031     2.808E-19
  55779.122     2.281E-19
  55779.222     1.824E-19
  55779.321     1.456E-19
  55779.411     1.209E-19
  55779.502     1.069E-19
  55779.605     1.003E-19
  55779.695     9.658E-20
  55779.785     9.430E-20
  55779.876     9.572E-20
  55779.954     1.033E-19
  55780.044     1.130E-19
  55780.135     1.248E-19
  55780.225     1.388E-19
  55780.316     1.564E-19
  55780.406     1.723E-19
  55780.486     1.829E-19
  55780.576     1.874E-19
  55780.666     1.692E-19
  55780.768     1.411E-19
  55780.858     1.187E-19
  55780.949     9.934E-20
  55781.052     8.269E-20
  55781.142     7.080E-20
  55781.233     6.328E-20
  55781.323     5.635E-20
  55781.423     5.200E-20
  55781.513     4.907E-20
  55781.604     4.859E-20
  55781.694     4.913E-20
  55781.785     5.324E-20
  55781.866     5.680E-20
  55781.956     5.995E-20
  55782.047     6.005E-20
  55782.137     6.249E-20
  55782.228     7.397E-20
  55782.306     8.812E-20
  55782.396     1.009E-19
  55782.486     1.151E-19
  55782.577     1.269E-19
  55782.667     1.316E-19
  55782.758     1.330E-19
  55782.848     1.365E-19
  55782.939     1.399E-19
  55783.029     1.453E-19
  55783.120     1.573E-19
  55783.199     1.759E-19
  55783.290     2.030E-19
  55783.373     2.359E-19
  55783.470     2.644E-19
  55783.554     2.752E-19
  55783.644     2.674E-19
  55783.735     2.637E-19
  55783.825     2.714E-19
  55783.916     2.865E-19
  55784.006     2.993E-19
  55784.097     3.054E-19
  55784.187     2.976E-19
  55784.278     2.792E-19
  55784.368     2.602E-19
  55784.459     2.469E-19
  55784.549     2.317E-19
  55784.646     2.228E-19
  55784.737     2.235E-19
  55784.820     2.344E-19
  55784.911     2.604E-19
  55785.001     2.879E-19
  55785.092     3.209E-19
  55785.182     3.518E-19
  55785.262     3.614E-19
  55785.363     3.286E-19
  55785.454     2.747E-19
  55785.544     2.243E-19
  55785.645     1.688E-19
  55785.743     1.217E-19
  55785.834     9.225E-20
  55785.937     7.301E-20
  55786.027     6.480E-20
  55786.117     6.097E-20
  55786.208     5.466E-20
  55786.308     5.063E-20
  55786.389     5.341E-20
  55786.489     5.573E-20
  55786.570     5.997E-20
  55786.660     6.513E-20
  55786.751     7.800E-20
  55786.829     9.522E-20
  55786.919     1.128E-19
  55787.010     1.400E-19
  55787.100     1.783E-19
  55787.183     2.322E-19
  55787.263     2.913E-19
  55787.354     3.227E-19
  55787.444     3.284E-19
  55787.535     3.149E-19
  55787.625     2.742E-19
  55787.715     2.282E-19
  55787.813     1.971E-19
  55787.914     1.825E-19
  55787.994     1.876E-19
  55788.077     2.112E-19
  55788.168     2.295E-19
  55788.258     2.368E-19
  55788.349     2.193E-19
  55788.446     1.871E-19
  55788.540     1.495E-19
  55788.638     1.155E-19
  55788.729     9.171E-20
  55788.841     7.224E-20
  55788.922     5.955E-20
  55789.022     5.271E-20
  55789.113     4.893E-20
  55789.194     4.929E-20
  55789.294     5.092E-20
  55789.375     5.866E-20
  55789.465     6.536E-20
  55789.556     6.674E-20
  55789.646     6.291E-20
  55789.736     5.839E-20
  55789.836     5.043E-20
  55789.927     4.110E-20
  55790.017     3.132E-20
  55790.108     2.433E-20
  55790.198     1.998E-20
  55790.289     1.387E-20
  55790.379     1.020E-20
  55790.470     1.086E-20
  55790.560     1.305E-20
  55790.651     1.508E-20
  55790.741     1.676E-20
  55790.832     1.688E-20
  55790.922     1.475E-20
  55791.013     1.471E-20
  55791.103     1.697E-20
  55791.215     8.364E-21
  55792.128     7.682E-21
  55793.040     6.832E-21
  55793.953     4.576E-21
  55794.866     4.242E-21
  55795.778     3.655E-21
  55796.691     3.767E-21
  55797.604     3.513E-21
  55798.517     6.357E-21
  55799.429     5.361E-21
