 16O18O;(10,0);79K;54725-980 cm-1;3642 pts
     WNO          SIG
  54725.047    9.9756E-22
  54725.109    1.2863E-21
  54725.184    1.2885E-21
  54725.250    4.7312E-22
  54725.324   -4.2740E-22
  54725.391   -5.2820E-22
  54725.457   -9.4940E-22
  54725.531   -1.5697E-21
  54725.598   -1.1709E-21
  54725.672   -4.6504E-22
  54725.738    9.9876E-22
  54725.809    1.9300E-21
  54725.875    1.9788E-21
  54725.953    1.0572E-21
  54726.016    2.8545E-22
  54726.090    2.7918E-22
  54726.156    1.0335E-21
  54726.230    1.2439E-21
  54726.297    6.5318E-22
  54726.363    9.8388E-22
  54726.438    1.7982E-21
  54726.504    2.0885E-21
  54726.578    1.1144E-21
  54726.645    2.9833E-22
  54726.715   -6.0594E-22
  54726.781   -1.8242E-21
  54726.859   -1.7337E-21
  54726.926   -9.3549E-22
  54726.996   -6.6126E-22
  54727.063   -4.3856E-22
  54727.137    1.3072E-22
  54727.203    4.1006E-22
  54727.277    2.2299E-22
  54727.344    1.1948E-21
  54727.418    2.9591E-21
  54727.484    3.9236E-21
  54727.551    4.1115E-21
  54727.621    3.0805E-21
  54727.691    1.2769E-21
  54727.766    4.4969E-22
  54727.832    6.2584E-22
  54727.902    1.3026E-21
  54727.969    1.4826E-21
  54728.047    1.0780E-21
  54728.109    9.3607E-22
  54728.184    5.5887E-22
  54728.250   -1.6151E-22
  54728.324    7.2770E-23
  54728.391   -1.7562E-22
  54728.457   -6.3204E-22
  54728.531   -4.3188E-22
  54728.598   -2.2486E-22
  54728.672   -3.9150E-22
  54728.738   -3.8386E-22
  54728.809   -4.6577E-22
  54728.875   -5.8562E-23
  54728.953    2.4959E-22
  54729.016   -6.3475E-22
  54729.090   -8.8103E-22
  54729.156   -1.1910E-21
  54729.230   -9.0481E-22
  54729.297   -3.3241E-22
  54729.363    1.2272E-21
  54729.438    2.5988E-21
  54729.504    3.3953E-21
  54729.578    3.0819E-21
  54729.645    2.6353E-21
  54729.715    1.9101E-21
  54729.781    9.0029E-22
  54729.859    1.0369E-21
  54729.926    2.0098E-21
  54729.996    2.5653E-21
  54730.063    2.6481E-21
  54730.137    2.8345E-21
  54730.203    2.8580E-21
  54730.277    1.9478E-21
  54730.344    1.1474E-21
  54730.418    6.4794E-23
  54730.484    2.0005E-22
  54730.551    1.0680E-21
  54730.621    1.2447E-21
  54730.691    2.1695E-21
  54730.766    2.7414E-21
  54730.832    1.9264E-21
  54730.902    9.9538E-22
  54730.969    7.9690E-23
  54731.047   -6.1453E-22
  54731.109   -1.8222E-21
  54731.184   -1.4648E-21
  54731.250   -6.3906E-22
  54731.324   -4.6756E-22
  54731.391   -2.1192E-22
  54731.457    1.5554E-22
  54731.531    1.0567E-22
  54731.598   -6.0652E-22
  54731.672   -9.0048E-22
  54731.738   -5.0225E-22
  54731.809   -3.8908E-22
  54731.875    3.2319E-22
  54731.953    7.8807E-22
  54732.016    1.4383E-21
  54732.090    1.8724E-21
  54732.156    2.2672E-21
  54732.230    2.4447E-21
  54732.297    3.0004E-21
  54732.363    3.1470E-21
  54732.438    3.3609E-21
  54732.504    2.8788E-21
  54732.578    1.5909E-21
  54732.645    1.4734E-22
  54732.715   -5.8455E-22
  54732.781   -7.9567E-22
  54732.859   -4.8805E-22
  54732.926    3.0126E-22
  54732.996    2.9821E-22
  54733.063   -3.0089E-22
  54733.137    4.0894E-22
  54733.203    1.3433E-21
  54733.277    2.5301E-21
  54733.344    3.0894E-21
  54733.418    2.8356E-21
  54733.484    2.3270E-21
  54733.551    1.2401E-21
  54733.625   -3.8058E-22
  54733.691   -8.2484E-22
  54733.766   -4.6792E-22
  54733.832    4.2760E-22
  54733.902    1.1170E-21
  54733.969    1.1399E-21
  54734.047    1.0572E-21
  54734.109    1.0544E-21
  54734.184    1.1990E-21
  54734.250    1.2618E-21
  54734.324    1.1774E-21
  54734.391    1.2996E-21
  54734.457    1.7030E-21
  54734.531    1.8893E-21
  54734.598    1.4457E-21
  54734.672    3.4196E-23
  54734.738   -1.1062E-21
  54734.809   -1.4684E-21
  54734.875   -1.0923E-21
  54734.953   -1.7248E-22
  54735.020    5.0161E-22
  54735.090    1.5438E-22
  54735.156    3.4615E-22
  54735.230    8.9072E-22
  54735.297    1.1060E-21
  54735.363    5.3720E-22
  54735.438    3.4760E-22
  54735.512    8.2160E-22
  54735.578    3.4760E-22
  54735.645   -2.2120E-22
  54735.715    7.2680E-22
  54735.785    1.1060E-21
  54735.859    1.2956E-21
  54735.926    1.0112E-21
  54735.996    7.2680E-22
  54736.063    1.2956E-21
  54736.141    2.3269E-21
  54736.203    2.0843E-21
  54736.277    2.2987E-21
  54736.344    2.2732E-21
  54736.418    2.0372E-21
  54736.484    1.3620E-21
  54736.551   -5.5339E-22
  54736.625    6.3201E-23
  54736.691   -3.1600E-23
  54736.766    5.3720E-22
  54736.832    2.5280E-22
  54736.902   -4.1080E-22
  54736.969   -9.3662E-22
  54737.047   -7.9156E-22
  54737.109   -6.2582E-22
  54737.184   -8.3199E-22
  54737.250   -7.2707E-22
  54737.324   -7.8439E-22
  54737.391   -1.5235E-21
  54737.457   -2.0971E-21
  54737.531   -2.3764E-21
  54737.598   -1.9885E-21
  54737.672   -1.5600E-21
  54737.738   -9.2812E-22
  54737.809   -3.8990E-22
  54737.875   -2.9967E-22
  54737.953   -7.8754E-22
  54738.020   -1.8426E-21
  54738.090   -2.1712E-21
  54738.156   -2.1858E-21
  54738.234   -1.9503E-21
  54738.297   -1.3937E-21
  54738.371   -7.3781E-22
  54738.438   -3.5006E-22
  54738.512   -4.9285E-22
  54738.578   -5.1479E-22
  54738.645   -5.9312E-22
  54738.719    3.5033E-23
  54738.785    5.9346E-22
  54738.859    9.2643E-22
  54738.926    1.5413E-21
  54738.996    1.2332E-21
  54739.063    6.5044E-22
  54739.141   -1.9112E-22
  54739.203   -1.4252E-21
  54739.277   -2.0258E-21
  54739.344   -2.1596E-21
  54739.418   -1.8856E-21
  54739.484   -1.1194E-21
  54739.551   -5.4834E-22
  54739.625   -1.1504E-21
  54739.691   -1.7785E-21
  54739.766   -1.6297E-21
  54739.832   -1.7579E-21
  54739.902   -1.4391E-21
  54739.969   -1.2557E-21
  54740.047   -1.4119E-21
  54740.113   -2.2065E-21
  54740.184   -2.8607E-21
  54740.250   -3.0290E-21
  54740.328   -2.7787E-21
  54740.391   -2.4937E-21
  54740.465   -2.4203E-21
  54740.531   -2.2994E-21
  54740.605   -2.4735E-21
  54740.672   -2.2457E-21
  54740.738   -1.0900E-21
  54740.813    1.2945E-22
  54740.879    8.0944E-22
  54740.953    2.6310E-22
  54741.020   -3.0889E-22
  54741.090   -9.3634E-22
  54741.156   -1.8453E-21
  54741.234   -2.5130E-21
  54741.297   -2.1628E-21
  54741.371   -1.5202E-21
  54741.438   -1.0086E-21
  54741.512   -1.2342E-21
  54741.578   -4.9136E-22
  54741.645    1.8382E-22
  54741.719   -1.5113E-22
  54741.785   -6.4147E-22
  54741.859   -5.1732E-22
  54741.926    5.6340E-22
  54741.996    1.3897E-21
  54742.063    2.0480E-21
  54742.141    2.0243E-21
  54742.207    1.8675E-21
  54742.277    1.6087E-21
  54742.344    1.6367E-21
  54742.422    1.8858E-21
  54742.484    1.0952E-21
  54742.559    3.3125E-22
  54742.625    4.6800E-23
  54742.699   -9.6986E-23
  54742.766    4.8370E-22
  54742.832    1.1980E-21
  54742.906    8.5701E-22
  54742.973    2.8556E-22
  54743.047   -3.2534E-22
  54743.113   -1.6567E-22
  54743.184    1.4182E-22
  54743.250    4.5118E-22
  54743.328    6.2374E-22
  54743.391    6.2132E-22
  54743.465    2.5738E-22
  54743.531   -3.4269E-22
  54743.605   -5.6308E-22
  54743.672   -4.6638E-22
  54743.738   -1.0656E-21
  54743.813   -2.2436E-21
  54743.879   -2.4653E-21
  54743.953   -1.9055E-21
  54744.020   -1.1049E-21
  54744.090   -1.5005E-21
  54744.156   -2.1577E-21
  54744.234   -1.8302E-21
  54744.301   -1.5547E-21
  54744.371   -1.1022E-21
  54744.438   -6.4085E-22
  54744.516   -8.1491E-22
  54744.578    5.2506E-24
  54744.652    7.7356E-22
  54744.719    4.2931E-22
  54744.793    7.1287E-22
  54744.859    4.3849E-22
  54744.926   -1.6067E-22
  54745.000   -9.3115E-22
  54745.066   -1.9339E-21
  54745.141   -2.2449E-21
  54745.207   -1.8549E-21
  54745.277   -6.8846E-22
  54745.344    1.9634E-22
  54745.422    7.3915E-22
  54745.488    1.0986E-21
  54745.559    9.2599E-22
  54745.625    7.5814E-23
  54745.699    1.0861E-22
  54745.766    4.5518E-22
  54745.832    4.1418E-23
  54745.906   -8.5738E-22
  54745.980   -1.4760E-21
  54746.047   -1.2871E-21
  54746.113   -1.2313E-21
  54746.184   -1.6577E-21
  54746.254   -1.7229E-21
  54746.328   -1.7932E-21
  54746.395   -1.2009E-21
  54746.465    4.0002E-22
  54746.531    7.5248E-22
  54746.609    2.6823E-22
  54746.672    5.7143E-22
  54746.746    3.8711E-22
  54746.813    9.8825E-23
  54746.887   -3.8995E-23
  54746.953    6.5658E-23
  54747.020    9.0451E-22
  54747.094    1.7878E-21
  54747.160    2.0644E-21
  54747.234    2.0821E-21
  54747.301    1.7792E-21
  54747.371    1.0026E-21
  54747.438    7.1457E-22
  54747.516    1.1991E-21
  54747.582    2.3886E-21
  54747.652    2.9252E-21
  54747.719    1.9247E-21
  54747.793    8.9761E-22
  54747.859   -5.1720E-22
  54747.934   -1.4174E-21
  54748.000   -1.3114E-21
  54748.074   -1.2250E-21
  54748.141   -1.5452E-21
  54748.207   -1.6693E-21
  54748.281   -2.0243E-21
  54748.348   -2.5907E-21
  54748.422   -2.6385E-21
  54748.488   -2.4270E-21
  54748.559   -1.9829E-21
  54748.625   -1.0955E-21
  54748.703    2.3505E-22
  54748.766    7.8517E-22
  54748.840    1.6057E-22
  54748.906   -6.5076E-23
  54748.980    1.1830E-22
  54749.047    3.2512E-22
  54749.113    3.4614E-22
  54749.188    1.7859E-22
  54749.254    6.2618E-22
  54749.328    4.0563E-22
  54749.395    4.3684E-22
  54749.465    1.4433E-21
  54749.531    1.3802E-21
  54749.609    1.2154E-21
  54749.676    6.8070E-22
  54749.746    6.1955E-22
  54749.813    1.1820E-21
  54749.891    1.0713E-21
  54749.953    6.1719E-22
  54750.027    1.3835E-21
  54750.094    2.7810E-21
  54750.168    4.1121E-21
  54750.234    4.2440E-21
  54750.301    4.3911E-21
  54750.375    4.4998E-21
  54750.441    4.1633E-21
  54750.516    3.1230E-21
  54750.582    2.6832E-21
  54750.652    2.4525E-21
  54750.719    1.8200E-21
  54750.797    1.4583E-21
  54750.863    1.4908E-21
  54750.934    1.5873E-21
  54751.000    2.2778E-21
  54751.074    2.9725E-21
  54751.141    2.7965E-21
  54751.215    2.1948E-21
  54751.281    1.3967E-21
  54751.355    6.5344E-22
  54751.422    2.6466E-22
  54751.488    4.8215E-23
  54751.563   -8.6688E-22
  54751.629   -1.8702E-21
  54751.703   -1.3033E-21
  54751.770   -5.5262E-22
  54751.840   -4.8422E-22
  54751.906    4.2845E-22
  54751.984    1.3591E-21
  54752.047    9.2850E-22
  54752.121    7.0423E-22
  54752.188    2.8047E-22
  54752.262   -2.7801E-22
  54752.328   -1.2693E-21
  54752.395   -2.2721E-21
  54752.469   -2.7771E-21
  54752.535   -2.8506E-21
  54752.609   -2.0590E-21
  54752.676   -1.7470E-21
  54752.746   -1.2935E-21
  54752.813   -6.2576E-22
  54752.891   -5.4109E-22
  54752.957    2.5995E-22
  54753.027    7.0127E-22
  54753.094    4.6097E-22
  54753.172    4.2046E-22
  54753.234   -1.3165E-22
  54753.309   -1.1581E-21
  54753.375   -1.1380E-21
  54753.449   -6.3467E-22
  54753.516    4.9658E-24
  54753.582    1.4381E-21
  54753.656    1.5859E-21
  54753.723    7.7564E-22
  54753.797    4.5109E-22
  54753.863    5.8187E-22
  54753.934    7.6484E-22
  54754.000    1.3932E-21
  54754.078    1.7340E-21
  54754.145    1.4337E-21
  54754.215    1.1194E-21
  54754.281    1.2089E-21
  54754.355    1.0547E-21
  54754.422    1.1464E-21
  54754.496    1.1309E-21
  54754.563    2.2464E-22
  54754.637   -1.1793E-21
  54754.703   -2.4007E-21
  54754.770   -2.9774E-21
  54754.844   -3.0810E-21
  54754.910   -2.5942E-21
  54754.984   -2.5782E-21
  54755.051   -2.3440E-21
  54755.121   -1.6506E-21
  54755.188   -7.9377E-22
  54755.266    2.9399E-22
  54755.328    1.1384E-21
  54755.402    1.4275E-21
  54755.469    9.2702E-22
  54755.543    1.0907E-23
  54755.609   -3.5918E-22
  54755.676   -1.2559E-21
  54755.750   -1.1792E-21
  54755.824   -1.2041E-21
  54755.891   -1.2725E-21
  54755.957   -1.1792E-21
  54756.027   -9.1531E-22
  54756.098    2.8110E-22
  54756.172    1.1001E-21
  54756.238    1.5215E-21
  54756.309    1.0537E-21
  54756.375    4.4557E-22
  54756.453   -1.5112E-22
  54756.516   -2.0364E-22
  54756.590   -4.9036E-23
  54756.656    4.2866E-22
  54756.730    9.2041E-22
  54756.797    7.6997E-22
  54756.863    6.6070E-22
  54756.938    6.7415E-22
  54757.004    1.0342E-21
  54757.078    2.0735E-21
  54757.145    2.2645E-21
  54757.215    2.1381E-21
  54757.281    1.4796E-21
  54757.359    6.2867E-22
  54757.426    6.2743E-22
  54757.496    4.9413E-22
  54757.563    1.1853E-22
  54757.641    4.8214E-22
  54757.703    8.8011E-22
  54757.777    1.1380E-21
  54757.844    1.4577E-21
  54757.918    2.1651E-21
  54757.984    2.7388E-21
  54758.051    2.6437E-21
  54758.125    2.0010E-21
  54758.191    1.9453E-21
  54758.266    2.2070E-21
  54758.332    2.0102E-21
  54758.402    1.3453E-21
  54758.469    7.7927E-22
  54758.547    3.6747E-22
  54758.613   -2.0474E-22
  54758.684   -5.6260E-22
  54758.750   -8.0217E-22
  54758.824   -3.7976E-22
  54758.891    7.2248E-22
  54758.965    1.3178E-21
  54759.031    1.9069E-21
  54759.105    2.1269E-21
  54759.172    1.6821E-21
  54759.238    1.0096E-21
  54759.313   -2.8177E-23
  54759.379   -1.0917E-21
  54759.453   -6.0040E-22
  54759.520    3.6468E-24
  54759.590    6.0033E-22
  54759.656    1.2872E-21
  54759.734    1.8832E-21
  54759.797    1.9653E-21
  54759.871    1.8553E-21
  54759.938    1.5412E-21
  54760.012    1.3498E-21
  54760.078    1.0848E-21
  54760.145    6.2416E-22
  54760.219    4.3332E-22
  54760.293    7.3853E-22
  54760.359    1.0142E-21
  54760.426    1.0950E-21
  54760.496    4.1017E-22
  54760.566   -7.9778E-22
  54760.641   -1.3834E-21
  54760.707   -1.6975E-21
  54760.777   -5.0894E-22
  54760.844    3.3978E-22
  54760.922    5.5403E-22
  54760.984    1.7181E-21
  54761.059    2.3645E-21
  54761.125    2.5255E-21
  54761.199    1.9577E-21
  54761.266    2.3521E-21
  54761.332    3.6597E-21
  54761.406    4.4162E-21
  54761.473    4.4542E-21
  54761.547    3.2831E-21
  54761.613    2.5809E-21
  54761.684    2.1516E-21
  54761.754    2.5286E-21
  54761.828    3.3727E-21
  54761.895    3.1656E-21
  54761.965    2.6197E-21
  54762.031    1.6759E-21
  54762.109    1.2625E-21
  54762.172    2.3382E-21
  54762.246    2.9098E-21
  54762.313    2.3976E-21
  54762.387    1.3547E-21
  54762.453    1.4467E-21
  54762.520    1.9172E-21
  54762.594    2.8455E-21
  54762.660    2.7818E-21
  54762.734    2.3438E-21
  54762.801    1.8941E-21
  54762.871    1.2686E-21
  54762.938    1.0107E-21
  54763.016    1.3056E-21
  54763.082    1.2298E-21
  54763.152    8.7409E-22
  54763.219    3.3584E-22
  54763.297    1.0937E-21
  54763.359    7.4339E-22
  54763.434    7.6555E-22
  54763.500    1.4009E-21
  54763.574    2.4843E-21
  54763.641    1.9435E-21
  54763.707    5.1886E-22
  54763.781   -5.2224E-22
  54763.848   -1.5660E-21
  54763.922   -1.7941E-21
  54763.988   -1.9784E-21
  54764.059   -2.1588E-21
  54764.125   -2.2412E-21
  54764.203   -1.3777E-21
  54764.270   -3.3754E-22
  54764.340   -1.8843E-22
  54764.406    3.3196E-22
  54764.484    1.0575E-21
  54764.547    2.1213E-21
  54764.621    3.4048E-21
  54764.688    3.6963E-21
  54764.762    3.1113E-21
  54764.828    1.8378E-21
  54764.895    5.4821E-22
  54764.969    3.9483E-23
  54765.035    6.3138E-23
  54765.109    1.0980E-21
  54765.176    2.1696E-21
  54765.246    2.4206E-21
  54765.313    1.9473E-21
  54765.391    1.3353E-21
  54765.457    1.3551E-21
  54765.527    1.0342E-21
  54765.594    1.0772E-21
  54765.668    9.2637E-22
  54765.734    6.2787E-22
  54765.809    4.9550E-22
  54765.875   -3.3013E-22
  54765.949   -1.1093E-21
  54766.016   -1.5435E-21
  54766.082   -1.5326E-21
  54766.156   -1.5792E-21
  54766.223   -1.7750E-21
  54766.297   -2.4169E-21
  54766.363   -1.6550E-21
  54766.434   -9.2889E-22
  54766.500    3.4878E-24
  54766.578    7.8116E-22
  54766.645    1.5714E-21
  54766.715    2.0295E-21
  54766.781    2.1795E-21
  54766.855    2.0396E-21
  54766.922    2.1394E-21
  54766.996    1.4565E-21
  54767.063    8.1289E-22
  54767.137    4.8690E-23
  54767.203   -6.5868E-22
  54767.270   -2.8704E-22
  54767.344    1.4312E-21
  54767.410    4.7985E-22
  54767.484    6.2795E-22
  54767.551    1.2329E-21
  54767.621   -3.3126E-22
  54767.688   -7.5016E-22
  54767.766   -1.7158E-21
  54767.832   -1.6050E-21
  54767.902    1.4896E-22
  54767.969    1.2948E-21
  54768.043    2.2137E-21
  54768.109    3.1794E-21
  54768.184    2.9660E-21
  54768.250    2.0655E-21
  54768.324    1.7723E-21
  54768.391    1.4852E-21
  54768.457    8.2160E-22
  54768.531    5.3720E-22
  54768.598    1.0112E-21
  54768.672    1.4852E-21
  54768.738    5.3720E-22
  54768.809   -3.1600E-23
  54768.875    3.4760E-22
  54768.953   -4.1080E-22
  54769.020   -1.1692E-21
  54769.090   -7.9000E-22
  54769.156   -5.0560E-22
  54769.230    6.3201E-23
  54769.297    1.0112E-21
  54769.371    2.0523E-21
  54769.438    1.9472E-21
  54769.512    2.1502E-21
  54769.578    2.5163E-21
  54769.645    1.6938E-21
  54769.719    8.3078E-22
  54769.785   -1.5314E-23
  54769.859   -7.7440E-22
  54769.926   -9.7141E-22
  54769.996   -3.0323E-22
  54770.063    1.1129E-21
  54770.141    2.1522E-21
  54770.207    2.9081E-21
  54770.277    3.1186E-21
  54770.344    2.5973E-21
  54770.418    1.5876E-21
  54770.484    7.8087E-22
  54770.559    1.1615E-22
  54770.625   -7.2070E-22
  54770.699   -7.7904E-22
  54770.766   -7.0258E-22
  54770.832   -1.1550E-21
  54770.906   -1.3862E-21
  54770.973   -1.6370E-21
  54771.047   -1.3678E-21
  54771.113   -1.8023E-21
  54771.184   -1.1692E-21
  54771.250   -6.9520E-22
  54771.328   -7.9000E-22
  54771.395   -1.5484E-21
  54771.465   -1.9276E-21
  54771.531   -1.2640E-21
  54771.605   -9.1239E-22
  54771.672    7.4496E-22
  54771.746    1.7091E-21
  54771.813    1.6568E-21
  54771.887    1.0532E-21
  54771.953    1.1520E-21
  54772.020    1.1704E-21
  54772.094    1.0680E-21
  54772.160    1.7571E-21
  54772.234    2.2152E-21
  54772.301    2.2050E-21
  54772.371    2.2221E-21
  54772.438    1.8124E-21
  54772.516    2.3467E-21
  54772.582    2.7924E-21
  54772.652    2.0334E-21
  54772.719    2.2225E-21
  54772.793    3.1098E-21
  54772.859    3.7343E-21
  54772.934    4.6565E-21
  54773.000    4.6075E-21
  54773.074    5.1678E-21
  54773.141    5.6199E-21
  54773.207    5.4124E-21
  54773.281    4.5958E-21
  54773.348    3.7755E-21
  54773.422    3.1489E-21
  54773.488    3.4056E-21
  54773.559    4.6883E-21
  54773.625    5.9512E-21
  54773.703    7.1221E-21
  54773.770    8.1954E-21
  54773.840    8.9967E-21
  54773.906    7.8629E-21
  54773.980    6.4397E-21
  54774.047    6.3141E-21
  54774.121    6.2264E-21
  54774.188    6.6742E-21
  54774.262    6.6043E-21
  54774.328    6.1420E-21
  54774.395    6.0915E-21
  54774.469    6.9805E-21
  54774.535    6.5705E-21
  54774.609    5.9922E-21
  54774.676    5.8206E-21
  54774.746    5.4030E-21
  54774.813    5.1356E-21
  54774.891    4.2618E-21
  54774.957    3.5242E-21
  54775.027    3.0968E-21
  54775.094    3.5708E-21
  54775.168    3.3812E-21
  54775.234    2.8124E-21
  54775.309    2.3384E-21
  54775.375    1.4852E-21
  54775.449    1.0112E-21
  54775.516    1.7696E-21
  54775.582    2.0540E-21
  54775.656    2.6228E-21
  54775.723    1.9841E-21
  54775.797    2.9674E-21
  54775.863    2.7965E-21
  54775.934    2.6533E-21
  54776.000    2.3810E-21
  54776.078    1.7648E-21
  54776.145    5.0198E-22
  54776.215   -7.3808E-22
  54776.281   -8.7791E-22
  54776.359   -1.7266E-22
  54776.422    7.3559E-22
  54776.496    9.5471E-22
  54776.563    4.1566E-22
  54776.637   -8.0305E-23
  54776.703   -5.0294E-22
  54776.770   -5.6091E-22
  54776.844   -1.8441E-22
  54776.910    5.9970E-22
  54776.984    3.4717E-22
  54777.051   -2.3581E-22
  54777.121   -6.6012E-22
  54777.188   -1.4548E-21
  54777.266   -1.5894E-21
  54777.332   -1.3281E-21
  54777.402   -6.3957E-22
  54777.469   -2.8352E-22
  54777.547   -3.2622E-22
  54777.609   -5.7709E-22
  54777.684   -1.0809E-21
  54777.750   -1.1800E-21
  54777.824   -1.2971E-21
  54777.891   -1.8169E-21
  54777.957   -2.0472E-21
  54778.031   -1.8261E-21
  54778.098   -1.7342E-21
  54778.172   -1.8633E-21
  54778.238   -1.5656E-21
  54778.309   -9.4646E-22
  54778.375   -1.1716E-21
  54778.453   -1.7032E-21
  54778.520   -2.0913E-21
  54778.590   -1.7676E-21
  54778.656   -1.4888E-21
  54778.734   -9.7096E-22
  54778.797   -6.9070E-22
  54778.871   -6.0128E-22
  54778.938   -8.3566E-22
  54779.012   -1.1748E-21
  54779.078   -1.1074E-21
  54779.145   -1.0046E-21
  54779.219   -7.5922E-22
  54779.285   -1.0057E-21
  54779.359   -1.0504E-21
  54779.426    1.6812E-22
  54779.496    6.7022E-22
  54779.566    7.6035E-23
  54779.641   -4.7342E-22
  54779.707   -1.0261E-21
  54779.777   -1.8249E-21
  54779.844   -2.3777E-21
  54779.922   -2.7484E-21
  54779.984   -2.1274E-21
  54780.059   -2.0784E-21
  54780.125   -1.6719E-21
  54780.199   -1.5490E-21
  54780.266   -1.3090E-21
  54780.332   -3.7936E-22
  54780.406    3.6084E-22
  54780.480    7.6409E-22
  54780.547    7.6556E-22
  54780.613    5.3102E-22
  54780.684    4.8687E-22
  54780.754    1.0494E-21
  54780.828    7.9371E-22
  54780.895    4.8105E-22
  54780.965    4.6973E-22
  54781.031    4.2896E-22
  54781.109   -1.9640E-23
  54781.172   -6.5284E-22
  54781.246   -8.9133E-23
  54781.313   -3.3332E-22
  54781.387   -1.1500E-21
  54781.453   -1.8041E-21
  54781.527   -2.4307E-21
  54781.594   -2.1843E-21
  54781.668   -1.0999E-21
  54781.734   -3.1488E-23
  54781.801    1.3364E-21
  54781.875    2.3426E-21
  54781.941    3.1901E-21
  54782.016    2.3793E-21
  54782.082    1.5109E-21
  54782.152    9.4354E-22
  54782.219   -3.2417E-22
  54782.297   -1.3221E-21
  54782.363   -1.7454E-21
  54782.434   -1.1199E-21
  54782.500   -5.6340E-22
  54782.574    6.0225E-22
  54782.641    1.4145E-21
  54782.715    1.2639E-21
  54782.781    1.0303E-21
  54782.855    2.8033E-22
  54782.922    6.4964E-23
  54782.988   -4.1804E-23
  54783.063   -4.0712E-22
  54783.129   -7.6769E-22
  54783.203   -4.3090E-22
  54783.270    3.9618E-22
  54783.340    4.0506E-22
  54783.406    9.6694E-23
  54783.484   -3.1617E-22
  54783.551   -1.2323E-22
  54783.621    1.6388E-22
  54783.688    2.7570E-22
  54783.766    8.9931E-22
  54783.828    1.8020E-21
  54783.902    2.3631E-21
  54783.969    2.3938E-21
  54784.043    8.3399E-22
  54784.109   -1.1199E-21
  54784.176   -1.6504E-21
  54784.250   -1.0671E-21
  54784.316   -5.6800E-22
  54784.391   -5.2947E-22
  54784.457   -6.9210E-22
  54784.527   -1.2765E-22
  54784.598    1.5469E-23
  54784.672    1.2114E-23
  54784.738    1.3039E-21
  54784.809    2.0153E-21
  54784.875    1.8514E-21
  54784.953    9.7377E-22
  54785.016   -5.8869E-22
  54785.090   -8.0094E-22
  54785.156    2.2560E-22
  54785.230    2.1490E-21
  54785.297    3.5213E-21
  54785.363    4.0720E-21
  54785.438    3.5569E-21
  54785.512    2.2079E-21
  54785.578    1.5612E-21
  54785.645    1.3670E-21
  54785.719    1.2088E-21
  54785.785    7.8973E-22
  54785.859    9.4483E-22
  54785.926    1.3469E-21
  54785.996    1.8523E-21
  54786.063    1.9466E-21
  54786.141    2.6419E-21
  54786.203    3.2164E-21
  54786.277    3.9766E-21
  54786.344    4.3742E-21
  54786.418    3.9086E-21
  54786.484    3.5829E-21
  54786.559    3.4348E-21
  54786.625    2.5248E-21
  54786.699    2.1597E-21
  54786.766    2.8042E-21
  54786.832    2.6459E-21
  54786.906    2.4817E-21
  54786.973    3.1195E-21
  54787.047    3.5102E-21
  54787.113    4.4331E-21
  54787.184    4.8641E-21
  54787.250    5.1677E-21
  54787.328    6.0908E-21
  54787.395    6.5755E-21
  54787.465    6.0929E-21
  54787.531    4.6316E-21
  54787.609    3.3750E-21
  54787.672    3.0682E-21
  54787.746    2.9100E-21
  54787.813    2.9136E-21
  54787.887    3.0585E-21
  54787.953    2.7032E-21
  54788.020    1.9369E-21
  54788.094    7.2820E-22
  54788.160    3.0028E-22
  54788.234    5.0248E-23
  54788.301    2.4822E-22
  54788.371    5.6478E-22
  54788.441    9.0716E-22
  54788.516    6.6972E-22
  54788.582    3.6204E-22
  54788.652    3.4248E-22
  54788.719    1.4380E-22
  54788.797    3.4760E-22
  54788.859    1.2956E-21
  54788.934    8.2160E-22
  54789.000    7.2680E-22
  54789.074    3.4760E-22
  54789.141    8.2160E-22
  54789.207    1.1060E-21
  54789.281    1.4852E-21
  54789.355    7.2680E-22
  54789.422    6.3201E-23
  54789.488   -4.1080E-22
  54789.563   -2.2120E-22
  54789.629    3.4760E-22
  54789.703    1.1060E-21
  54789.770    8.2160E-22
  54789.840    5.3720E-22
  54789.906    2.5280E-22
  54789.984   -4.1080E-22
  54790.051   -3.1600E-23
  54790.121    3.4760E-22
  54790.188    8.2160E-22
  54790.262    1.0112E-21
  54790.328    5.3720E-22
  54790.402    6.3201E-23
  54790.469   -2.2120E-22
  54790.543    3.4760E-22
  54790.609    1.4852E-21
  54790.676    1.0112E-21
  54790.750    7.2680E-22
  54790.816    6.3201E-23
  54790.891    3.4760E-22
  54790.957    1.0112E-21
  54791.027    1.2956E-21
  54791.094    7.2680E-22
  54791.172    3.4760E-22
  54791.238   -4.1080E-22
  54791.309   -6.9520E-22
  54791.375   -3.1600E-23
  54791.453    7.2680E-22
  54791.516    3.4760E-22
  54791.590   -2.2120E-22
  54791.656    7.8111E-22
  54791.730   -2.2120E-22
  54791.797    2.5280E-22
  54791.863   -2.2120E-22
  54791.938   -2.4370E-22
  54792.012    7.6678E-22
  54792.078    8.2443E-22
  54792.145    9.1211E-22
  54792.215    3.4589E-22
  54792.285    7.0911E-23
  54792.359    3.5998E-22
  54792.426    1.2217E-21
  54792.496    1.6167E-21
  54792.563    2.1343E-21
  54792.641    1.9970E-21
  54792.703    1.6330E-21
  54792.777    6.9342E-22
  54792.844    2.6998E-22
  54792.918   -1.2603E-22
  54792.984    5.3075E-22
  54793.059    1.1830E-21
  54793.125    1.0027E-21
  54793.199    4.2890E-22
  54793.266    2.4528E-22
  54793.332    2.0760E-22
  54793.406    8.9620E-22
  54793.473    1.2592E-21
  54793.547    4.2884E-22
  54793.613    5.6278E-22
  54793.684    2.1281E-22
  54793.750    7.0729E-22
  54793.828    3.6664E-21
  54793.895    7.2593E-21
  54793.965    7.2196E-21
  54794.031    6.5129E-21
  54794.109    2.6622E-21
  54794.172    2.2428E-21
  54794.246    2.5075E-21
  54794.313    2.1659E-21
  54794.387    2.3270E-21
  54794.453    2.8916E-21
  54794.520    2.3789E-21
  54794.594    1.2468E-21
  54794.668    1.4158E-22
  54794.734   -9.7904E-22
  54794.801   -1.1654E-21
  54794.871   -2.9431E-22
  54794.941    2.5601E-21
  54795.016    5.8583E-21
  54795.082    6.7972E-21
  54795.152    6.4556E-21
  54795.219    6.1420E-21
  54795.297    6.5719E-21
  54795.359    5.4040E-21
  54795.434    8.1607E-21
  54795.500    7.6925E-21
  54795.574    9.7214E-21
  54795.641    9.0570E-21
  54795.715    9.4293E-21
  54795.781    1.0523E-20
  54795.855    1.0696E-20
  54795.922    1.1111E-20
  54795.988    1.2570E-20
  54796.063    1.4460E-20
  54796.129    1.4596E-20
  54796.203    1.4440E-20
  54796.270    1.2963E-20
  54796.340    1.1898E-20
  54796.406    1.1706E-20
  54796.484    1.0962E-20
  54796.551    9.5300E-21
  54796.621    8.3006E-21
  54796.688    7.4216E-21
  54796.766    7.9789E-21
  54796.828    7.9485E-21
  54796.902    8.1848E-21
  54796.969    8.6612E-21
  54797.043    8.2861E-21
  54797.109    7.6677E-21
  54797.176    7.6115E-21
  54797.250    7.4298E-21
  54797.324    7.6276E-21
  54797.391    7.4681E-21
  54797.457    6.8115E-21
  54797.531    6.0447E-21
  54797.598    5.1327E-21
  54797.672    5.3592E-21
  54797.738    5.7838E-21
  54797.809    6.3361E-21
  54797.875    7.0150E-21
  54797.953    7.0648E-21
  54798.020    5.8167E-21
  54798.090    4.6741E-21
  54798.156    4.0349E-21
  54798.230    3.0369E-21
  54798.297    2.3203E-21
  54798.371    2.0240E-21
  54798.438    2.1895E-21
  54798.512    2.6443E-21
  54798.578    2.4718E-21
  54798.645    2.3708E-21
  54798.719    2.1725E-21
  54798.785    2.4735E-21
  54798.859    3.2163E-21
  54798.926    3.6454E-21
  54798.996    3.4627E-21
  54799.063    2.6360E-21
  54799.141    1.8236E-21
  54799.207    1.7165E-21
  54799.277    2.2498E-21
  54799.344    2.8449E-21
  54799.422    2.7080E-21
  54799.484    2.4943E-21
  54799.559    2.2426E-21
  54799.625    1.9549E-21
  54799.699    1.3285E-21
  54799.766    8.6014E-22
  54799.840    1.5134E-22
  54799.906   -4.0732E-22
  54799.980    1.3923E-22
  54800.047    1.6321E-21
  54800.113    2.6991E-21
  54800.188    2.8271E-21
  54800.254    2.4746E-21
  54800.328    2.1664E-21
  54800.395    1.4689E-21
  54800.465    3.9533E-22
  54800.531   -6.8508E-22
  54800.609   -1.2529E-21
  54800.676   -1.2107E-21
  54800.746   -1.1912E-21
  54800.813   -1.6663E-21
  54800.891   -2.4399E-21
  54800.953   -2.0519E-21
  54801.027   -1.7877E-21
  54801.094   -1.3265E-21
  54801.168   -5.2975E-22
  54801.234    5.6148E-22
  54801.301    1.3116E-21
  54801.375    1.2757E-21
  54801.449    9.0007E-22
  54801.516    3.8603E-22
  54801.582   -3.8579E-22
  54801.652   -1.0111E-21
  54801.723   -2.9009E-22
  54801.797    9.6438E-22
  54801.863    1.4232E-21
  54801.934    1.4598E-21
  54802.000    7.6866E-22
  54802.078   -9.9465E-23
  54802.145   -8.3744E-23
  54802.215    2.1159E-22
  54802.281    3.3946E-22
  54802.355    1.6713E-22
  54802.422   -6.7909E-22
  54802.496   -1.2374E-21
  54802.563   -1.0135E-21
  54802.637   -6.9510E-22
  54802.703   -1.0050E-21
  54802.770   -9.0065E-22
  54802.844   -2.1134E-22
  54802.910    3.9192E-22
  54802.984    1.6001E-21
  54803.051    2.4336E-21
  54803.121    2.8528E-21
  54803.191    2.8185E-21
  54803.266    2.0524E-21
  54803.332    1.1477E-21
  54803.402    3.9181E-22
  54803.469    2.5392E-23
  54803.547    2.4517E-22
  54803.609    7.2732E-22
  54803.684    1.4773E-21
  54803.750    1.9353E-21
  54803.824    2.4666E-21
  54803.891    3.3790E-21
  54803.965    3.0722E-21
  54804.031    1.9831E-21
  54804.105    9.4678E-22
  54804.172    8.7814E-22
  54804.238    1.5371E-21
  54804.313    2.5716E-21
  54804.379    3.0618E-21
  54804.453    2.8075E-21
  54804.520    2.0140E-21
  54804.590    1.4557E-21
  54804.656    4.1375E-22
  54804.734   -7.8534E-22
  54804.801   -1.2373E-21
  54804.871   -1.2421E-21
  54804.938   -1.0319E-21
  54805.016   -3.8166E-22
  54805.078    7.5517E-22
  54805.152    1.2051E-21
  54805.219    8.8319E-22
  54805.293    6.3945E-22
  54805.359    4.5312E-22
  54805.426    7.1507E-22
  54805.500    9.4981E-22
  54805.574    6.3560E-22
  54805.641    4.3612E-22
  54805.707    1.0658E-21
  54805.781    1.6339E-21
  54805.848    1.8595E-21
  54805.922    1.9365E-21
  54805.988    1.4618E-21
  54806.059   -8.1619E-22
  54806.125   -2.5891E-21
  54806.203   -3.3040E-21
  54806.270   -3.6672E-21
  54806.340   -2.1591E-21
  54806.406   -3.9582E-23
  54806.484    1.4593E-21
  54806.547    2.4450E-21
  54806.621    2.9203E-21
  54806.688    2.9141E-21
  54806.762    3.0474E-21
  54806.828    2.3006E-21
  54806.895    1.5878E-21
  54806.969    1.3657E-21
  54807.043    1.9689E-21
  54807.109    2.7644E-21
  54807.176    3.6597E-21
  54807.250    4.1932E-21
  54807.316    4.2091E-21
  54807.391    4.7634E-21
  54807.457    5.5507E-21
  54807.527    5.5529E-21
  54807.594    6.1226E-21
  54807.672    6.8099E-21
  54807.738    7.3249E-21
  54807.809    7.2495E-21
  54807.875    6.5682E-21
  54807.953    6.5169E-21
  54808.016    7.1569E-21
  54808.090    7.9518E-21
  54808.156    8.4212E-21
  54808.230    9.3637E-21
  54808.297    1.1080E-20
  54808.363    1.1600E-20
  54808.438    1.1531E-20
  54808.504    1.0191E-20
  54808.578    8.4647E-21
  54808.645    7.9019E-21
  54808.715    8.8028E-21
  54808.785    8.8132E-21
  54808.859    7.9709E-21
  54808.926    6.8151E-21
  54808.996    5.5620E-21
  54809.063    4.9698E-21
  54809.141    4.6977E-21
  54809.207    4.7124E-21
  54809.277    5.2811E-21
  54809.344    5.9765E-21
  54809.418    5.6227E-21
  54809.484    5.3821E-21
  54809.559    4.4495E-21
  54809.625    3.1807E-21
  54809.699    3.5708E-21
  54809.766    3.2864E-21
  54809.832    2.6228E-21
  54809.906    1.5800E-21
  54809.973    1.2219E-21
  54810.047    2.2436E-21
  54810.113    2.0540E-21
  54810.184    1.5800E-21
  54810.254    1.8644E-21
  54810.328    1.1060E-21
  54810.395    7.2680E-22
  54810.465    1.2956E-21
  54810.531    1.4852E-21
  54810.609    1.1060E-21
  54810.672    1.7785E-21
  54810.746    1.2956E-21
  54810.813    2.0540E-21
  54810.887    3.2642E-21
  54810.953    2.6228E-21
  54811.027    2.5280E-21
  54811.094    3.4626E-21
  54811.168    3.0968E-21
  54811.234    2.5280E-21
  54811.301    1.4852E-21
  54811.375    1.2956E-21
  54811.441    7.2680E-22
  54811.516    6.3201E-23
  54811.582    3.4760E-22
  54811.652    1.4852E-21
  54811.723    1.5800E-21
  54811.797    1.0112E-21
  54811.863    3.4760E-22
  54811.934   -2.2120E-22
  54812.000    5.3720E-22
  54812.078    2.5280E-22
  54812.141    8.2160E-22
  54812.215    1.1060E-21
  54812.281    2.1868E-21
  54812.355    2.5325E-21
  54812.422    2.3544E-21
  54812.496    2.7617E-21
  54812.563    3.0448E-21
  54812.637    3.9260E-21
  54812.703    3.0322E-21
  54812.770    2.8182E-21
  54812.844    2.2436E-21
  54812.910    1.4852E-21
  54812.984    1.0112E-21
  54813.051    7.2680E-22
  54813.121    1.5800E-21
  54813.191    1.8644E-21
  54813.266    1.4852E-21
  54813.332    1.9123E-21
  54813.402    5.6018E-22
  54813.469   -6.9435E-22
  54813.547   -4.6147E-22
  54813.609    3.2278E-22
  54813.684    8.3365E-22
  54813.750    6.8803E-22
  54813.824    3.4760E-22
  54813.891    1.4852E-21
  54813.965    8.2160E-22
  54814.031    3.8789E-22
  54814.105    1.7696E-21
  54814.172    1.2956E-21
  54814.238    2.0540E-21
  54814.313    1.5800E-21
  54814.379    1.1060E-21
  54814.453    2.5280E-22
  54814.520    7.2680E-22
  54814.590   -3.1600E-23
  54814.660    1.0112E-21
  54814.734    1.7696E-21
  54814.801    2.0611E-21
  54814.871    1.7153E-21
  54814.938    2.2214E-21
  54815.016    2.7601E-21
  54815.078    3.4464E-21
  54815.152    2.7059E-21
  54815.219    1.6639E-21
  54815.293    1.0852E-21
  54815.359    4.7697E-22
  54815.434    7.7426E-22
  54815.500    8.9660E-22
  54815.574    3.6148E-21
  54815.641    5.2525E-21
  54815.707    5.8721E-21
  54815.781    6.4687E-21
  54815.848    6.9276E-21
  54815.922    7.3409E-21
  54815.988    4.7635E-21
  54816.059    4.6347E-21
  54816.129    4.8754E-21
  54816.203    6.1135E-21
  54816.270    7.9919E-21
  54816.340    1.2104E-20
  54816.406    1.4091E-20
  54816.484    1.5983E-20
  54816.551    1.8182E-20
  54816.621    1.7893E-20
  54816.688    1.9666E-20
  54816.762    2.2045E-20
  54816.828    2.3753E-20
  54816.902    2.1544E-20
  54816.969    2.3767E-20
  54817.043    2.5866E-20
  54817.109    2.6722E-20
  54817.176    2.6814E-20
  54817.250    2.5885E-20
  54817.316    2.4013E-20
  54817.391    2.3556E-20
  54817.457    2.3756E-20
  54817.527    2.3757E-20
  54817.598    2.3491E-20
  54817.672    2.2495E-20
  54817.738    2.0785E-20
  54817.809    1.9782E-20
  54817.875    1.7943E-20
  54817.953    1.7091E-20
  54818.020    1.5685E-20
  54818.090    1.3369E-20
  54818.156    1.1122E-20
  54818.234    9.8825E-21
  54818.297    9.1564E-21
  54818.371    9.5313E-21
  54818.438    9.4040E-21
  54818.512    9.3481E-21
  54818.578    8.8034E-21
  54818.645    8.2389E-21
  54818.719    7.8338E-21
  54818.793    7.2981E-21
  54818.859    6.5233E-21
  54818.926    5.7838E-21
  54819.000    5.3599E-21
  54819.066    4.9078E-21
  54819.141    5.0282E-21
  54819.207    5.3251E-21
  54819.277    5.1210E-21
  54819.344    4.5312E-21
  54819.422    4.4856E-21
  54819.488    4.2294E-21
  54819.559    4.2370E-21
  54819.625    3.6244E-21
  54819.703    3.3539E-21
  54819.766    2.7549E-21
  54819.840    3.1151E-21
  54819.906    3.7292E-21
  54819.980    3.6123E-21
  54820.047    3.6070E-21
  54820.113    3.1422E-21
  54820.188    2.5655E-21
  54820.262    2.0072E-21
  54820.328    2.3595E-21
  54820.395    2.6820E-21
  54820.469    2.8438E-21
  54820.535    3.2510E-21
  54820.609    4.0137E-21
  54820.676    3.7194E-21
  54820.746    3.1012E-21
  54820.813    1.7757E-21
  54820.891   -4.9490E-23
  54820.957   -1.1909E-21
  54821.027   -2.1469E-21
  54821.094   -2.4190E-21
  54821.172   -1.9439E-21
  54821.234   -9.1889E-22
  54821.309    7.3499E-22
  54821.375    1.6824E-21
  54821.449    2.5573E-21
  54821.516    2.4586E-21
  54821.590    1.9635E-21
  54821.656    2.5697E-21
  54821.730    2.9720E-21
  54821.797    3.2415E-21
  54821.863    3.2550E-21
  54821.938    2.8311E-21
  54822.004    2.5630E-21
  54822.078    2.8939E-21
  54822.145    2.6309E-21
  54822.215    2.6353E-21
  54822.281    2.3889E-21
  54822.359    1.5369E-21
  54822.426    1.4605E-21
  54822.496    1.5009E-21
  54822.563    1.7930E-21
  54822.641    1.4672E-21
  54822.703    9.3087E-22
  54822.777    2.9541E-22
  54822.844   -6.3340E-23
  54822.918    1.0950E-22
  54822.984    7.9923E-22
  54823.059    1.1305E-21
  54823.125    1.2480E-21
  54823.199    9.4235E-22
  54823.266    2.4130E-23
  54823.332   -4.1992E-22
  54823.406   -1.1712E-21
  54823.473   -1.7760E-21
  54823.547   -8.0892E-22
  54823.613    7.1153E-22
  54823.684    2.1856E-21
  54823.754    3.6426E-21
  54823.828    3.9549E-21
  54823.895    3.8198E-21
  54823.965    3.6097E-21
  54824.031    2.6406E-21
  54824.109    1.8388E-21
  54824.176    9.1881E-22
  54824.246    4.0854E-22
  54824.313    9.3361E-22
  54824.391    1.2197E-21
  54824.453    1.8182E-21
  54824.527    3.3014E-21
  54824.594    3.9923E-21
  54824.668    2.9347E-21
  54824.734    2.0362E-21
  54824.801    8.5356E-22
  54824.875   -7.1311E-23
  54824.949    6.7615E-22
  54825.016    8.3377E-22
  54825.082    6.0857E-22
  54825.156   -3.2428E-22
  54825.223   -1.1423E-21
  54825.297   -6.7903E-22
  54825.363   -2.3446E-22
  54825.434   -3.5078E-22
  54825.500   -1.4500E-22
  54825.578   -6.8533E-22
  54825.645   -6.2397E-22
  54825.715   -6.2185E-22
  54825.781   -7.7274E-23
  54825.859    6.9127E-22
  54825.922    1.4839E-21
  54825.996    1.4902E-21
  54826.063    8.0286E-22
  54826.137   -4.7031E-22
  54826.203   -7.8311E-22
  54826.277   -6.6133E-22
  54826.344   -1.2022E-21
  54826.418   -2.3372E-21
  54826.484   -2.9435E-21
  54826.551   -3.4562E-21
  54826.625   -2.0060E-21
  54826.691    3.2448E-22
  54826.766    1.5071E-21
  54826.832    1.4842E-21
  54826.902    1.1250E-21
  54826.973    1.6130E-21
  54827.047    2.0819E-21
  54827.113    2.2888E-21
  54827.184    2.8063E-21
  54827.250    3.6379E-21
  54827.328    1.6078E-21
  54827.395    2.7620E-21
  54827.465    4.9059E-21
  54827.531    5.8157E-21
  54827.605    6.7018E-21
  54827.672    7.9394E-21
  54827.746    8.6638E-21
  54827.813    1.0250E-20
  54827.887    1.1644E-20
  54827.953    1.3252E-20
  54828.020    1.2812E-20
  54828.094    1.3091E-20
  54828.168    1.2909E-20
  54828.234    1.2282E-20
  54828.301    1.2011E-20
  54828.375    1.2830E-20
  54828.441    1.2746E-20
  54828.516    1.3355E-20
  54828.582    1.3644E-20
  54828.652    1.4267E-20
  54828.719    1.3739E-20
  54828.797    1.2830E-20
  54828.863    1.1248E-20
  54828.934    1.1502E-20
  54829.000    1.2318E-20
  54829.078    1.2627E-20
  54829.141    1.2035E-20
  54829.215    1.1782E-20
  54829.281    1.1731E-20
  54829.355    1.1119E-20
  54829.422    1.0572E-20
  54829.496    1.0308E-20
  54829.563    9.4957E-21
  54829.637    8.5792E-21
  54829.703    8.8750E-21
  54829.770    8.9327E-21
  54829.844    7.6178E-21
  54829.910    6.6639E-21
  54829.984    5.4465E-21
  54830.051    3.7446E-21
  54830.121    3.0813E-21
  54830.191    2.5614E-21
  54830.266    2.4049E-21
  54830.332    2.9701E-21
  54830.402    1.5605E-21
  54830.469   -3.6244E-23
  54830.547    5.8564E-22
  54830.613    9.5179E-22
  54830.684    2.0986E-21
  54830.750    2.5280E-21
  54830.828    2.0540E-21
  54830.891    1.7696E-21
  54830.965    8.2160E-22
  54831.031    1.1060E-21
  54831.105    1.4852E-21
  54831.172    1.0112E-21
  54831.238    7.2680E-22
  54831.313    1.2956E-21
  54831.387   -3.7281E-22
  54831.453   -2.9944E-22
  54831.520    2.5280E-22
  54831.594    1.1060E-21
  54831.660    1.4852E-21
  54831.734    8.2160E-22
  54831.801    3.4760E-22
  54831.871    7.2680E-22
  54831.938    1.1060E-21
  54832.016    3.4760E-22
  54832.082   -3.1600E-23
  54832.152    2.5280E-22
  54832.219    5.3720E-22
  54832.297    3.4760E-22
  54832.359   -2.2120E-22
  54832.434   -7.9000E-22
  54832.500   -3.1600E-23
  54832.574    7.2680E-22
  54832.641    1.1060E-21
  54832.715    8.2160E-22
  54832.781    1.5800E-21
  54832.855    2.0540E-21
  54832.922    2.9360E-21
  54832.988    2.0790E-21
  54833.063    9.7677E-22
  54833.129   -2.0355E-22
  54833.203   -2.3647E-22
  54833.270   -2.6678E-23
  54833.340    1.1669E-21
  54833.410    1.9018E-21
  54833.484    2.5023E-21
  54833.551    3.3913E-21
  54833.621    3.0055E-21
  54833.688    2.0608E-21
  54833.766    1.8671E-21
  54833.832    2.4045E-21
  54833.902    4.4765E-21
  54833.969    6.0629E-21
  54834.047    6.5480E-21
  54834.109    6.8463E-21
  54834.184    7.5268E-21
  54834.250    7.1308E-21
  54834.324    5.9538E-21
  54834.391    5.2375E-21
  54834.465    6.0546E-21
  54834.531    6.2300E-21
  54834.605    5.6097E-21
  54834.672    5.5670E-21
  54834.738    6.1838E-21
  54834.813    6.2633E-21
  54834.879    6.8004E-21
  54834.953    7.2868E-21
  54835.020    7.9274E-21
  54835.090    9.1860E-21
  54835.160    1.0828E-20
  54835.234    1.1519E-20
  54835.301    1.1946E-20
  54835.371    1.0906E-20
  54835.438    1.0561E-20
  54835.516    1.1410E-20
  54835.582    1.3616E-20
  54835.652    1.5977E-20
  54835.719    1.7595E-20
  54835.797    1.8448E-20
  54835.859    2.0050E-20
  54835.934    2.1209E-20
  54836.000    2.2739E-20
  54836.074    2.5068E-20
  54836.141    2.7361E-20
  54836.207    3.2105E-20
  54836.281    3.6836E-20
  54836.355    3.9080E-20
  54836.422    4.0882E-20
  54836.488    3.9639E-20
  54836.563    4.0125E-20
  54836.629    4.1408E-20
  54836.703    4.1901E-20
  54836.770    4.1977E-20
  54836.840    4.2452E-20
  54836.906    4.3262E-20
  54836.984    4.1852E-20
  54837.051    4.0177E-20
  54837.121    3.8572E-20
  54837.188    3.7963E-20
  54837.266    3.6502E-20
  54837.328    3.6510E-20
  54837.402    3.4821E-20
  54837.469    3.3685E-20
  54837.543    3.2573E-20
  54837.609    3.2577E-20
  54837.684    3.1431E-20
  54837.750    2.9660E-20
  54837.824    2.6154E-20
  54837.891    2.4502E-20
  54837.957    2.3951E-20
  54838.031    2.3765E-20
  54838.105    2.3907E-20
  54838.172    2.3238E-20
  54838.238    2.0827E-20
  54838.313    1.6166E-20
  54838.379    1.2119E-20
  54838.453    1.0381E-20
  54838.520    1.0925E-20
  54838.590    1.1732E-20
  54838.656    1.0694E-20
  54838.734    8.6335E-21
  54838.801    5.2109E-21
  54838.871    2.7039E-21
  54838.938    9.5123E-22
  54839.016    1.4939E-21
  54839.078    1.6637E-21
  54839.152    3.0219E-21
  54839.219    3.3496E-21
  54839.293    2.9409E-21
  54839.359    1.0922E-21
  54839.434    1.7236E-21
  54839.500    1.1862E-21
  54839.574    1.4311E-21
  54839.641    2.5446E-21
  54839.707    3.6638E-21
  54839.781    3.2600E-21
  54839.855    2.6442E-21
  54839.922    1.2860E-21
  54839.988    1.5093E-21
  54840.063    1.8492E-21
  54840.129    1.8130E-21
  54840.203    2.2692E-21
  54840.270    2.6665E-21
  54840.340    2.3303E-21
  54840.406    1.5404E-21
  54840.484    1.7696E-21
  54840.551    2.8334E-21
  54840.621    4.1438E-21
  54840.688    4.5960E-21
  54840.766    2.3990E-21
  54840.828    1.4364E-21
  54840.902    6.6831E-22
  54840.969    1.8496E-21
  54841.043    2.1266E-21
  54841.109    2.2654E-21
  54841.184    2.5526E-21
  54841.250    3.5147E-21
  54841.324    2.4597E-21
  54841.391    2.0176E-21
  54841.457    9.2545E-22
  54841.531   -9.9413E-24
  54841.598   -6.0856E-22
  54841.672   -2.6831E-22
  54841.738    1.1378E-21
  54841.809    1.3464E-21
  54841.879    1.3695E-21
  54841.953    2.4153E-21
  54842.020    2.4818E-21
  54842.090    3.6363E-21
  54842.156    3.3140E-21
  54842.234    2.2827E-21
  54842.301    1.3863E-21
  54842.371    2.8576E-22
  54842.438    1.0659E-21
  54842.516    2.0316E-21
  54842.578    3.6294E-21
  54842.652    4.1790E-21
  54842.719    4.6398E-21
  54842.793    4.6141E-21
  54842.859    4.3211E-21
  54842.934    3.7130E-21
  54843.000    3.5169E-21
  54843.074    3.2376E-21
  54843.141    2.8887E-21
  54843.207    2.9942E-21
  54843.281    4.7468E-21
  54843.355    4.5469E-21
  54843.422    4.3398E-21
  54843.488    3.7111E-21
  54843.563    1.9620E-21
  54843.629    1.2133E-21
  54843.703    1.5359E-21
  54843.770    2.6228E-21
  54843.840    3.0020E-21
  54843.906    3.3812E-21
  54843.984    3.0968E-21
  54844.051    2.8124E-21
  54844.121    2.0540E-21
  54844.188    1.7696E-21
  54844.266    2.2436E-21
  54844.328    2.3384E-21
  54844.402    3.0020E-21
  54844.469    3.3812E-21
  54844.543    2.8754E-21
  54844.609    2.3001E-21
  54844.684    2.5327E-21
  54844.750    3.0606E-21
  54844.824    4.2058E-21
  54844.891    4.0776E-21
  54844.957    3.3964E-21
  54845.031    2.9241E-21
  54845.105    3.2306E-21
  54845.172    4.4070E-21
  54845.238    5.0072E-21
  54845.313    5.1770E-21
  54845.379    4.8331E-21
  54845.453    4.0063E-21
  54845.520    3.5071E-21
  54845.590    4.2771E-21
  54845.656    4.8045E-21
  54845.734    4.9456E-21
  54845.801    5.7802E-21
  54845.871    6.1428E-21
  54845.938    5.8957E-21
  54846.016    5.9773E-21
  54846.078    5.8840E-21
  54846.152    7.1039E-21
  54846.219    8.6326E-21
  54846.293    9.9156E-21
  54846.359    1.0397E-20
  54846.434    1.1477E-20
  54846.500    1.3184E-20
  54846.574    1.5897E-20
  54846.641    1.7826E-20
  54846.707    1.8902E-20
  54846.781    2.0641E-20
  54846.855    2.0934E-20
  54846.922    2.1032E-20
  54846.988    2.1775E-20
  54847.063    2.1826E-20
  54847.129    2.1439E-20
  54847.203    2.2168E-20
  54847.270    2.2134E-20
  54847.340    2.1871E-20
  54847.406    2.1737E-20
  54847.484    2.1712E-20
  54847.551    2.1730E-20
  54847.621    2.0759E-20
  54847.688    1.9933E-20
  54847.766    1.9913E-20
  54847.832    1.9946E-20
  54847.902    2.0498E-20
  54847.969    1.9629E-20
  54848.047    1.8022E-20
  54848.109    1.6160E-20
  54848.184    1.4842E-20
  54848.250    1.3619E-20
  54848.324    1.2130E-20
  54848.391    1.0249E-20
  54848.465    8.9266E-21
  54848.531    8.1328E-21
  54848.605    8.2739E-21
  54848.672    8.6090E-21
  54848.738    8.9473E-21
  54848.813    9.9147E-21
  54848.879    9.2409E-21
  54848.953    7.4787E-21
  54849.020    7.2371E-21
  54849.090    7.1864E-21
  54849.160    6.4021E-21
  54849.234    5.8922E-21
  54849.301    5.5567E-21
  54849.371    5.3252E-21
  54849.438    5.3465E-21
  54849.516    5.4317E-21
  54849.582    4.7524E-21
  54849.652    3.7312E-21
  54849.719    2.4185E-21
  54849.797    1.9488E-21
  54849.859    2.2676E-21
  54849.934    2.6641E-21
  54850.000    3.0514E-21
  54850.074    3.5827E-21
  54850.141    3.9569E-21
  54850.215    3.5552E-21
  54850.281    3.7073E-21
  54850.355    3.9216E-21
  54850.422    3.9134E-21
  54850.488    4.5700E-21
  54850.563    4.7100E-21
  54850.629    5.4278E-21
  54850.703    5.7999E-21
  54850.770    6.1176E-21
  54850.840    6.6750E-21
  54850.910    6.4253E-21
  54850.984    6.4334E-21
  54851.051    6.5757E-21
  54851.121    6.7031E-21
  54851.188    6.5354E-21
  54851.266    6.2708E-21
  54851.332    5.4756E-21
  54851.402    4.3786E-21
  54851.469    4.2627E-21
  54851.547    4.2783E-21
  54851.609    4.3214E-21
  54851.684    5.3108E-21
  54851.750    6.2263E-21
  54851.824    6.5627E-21
  54851.891    7.3413E-21
  54851.965    7.5930E-21
  54852.031    8.1174E-21
  54852.105    8.3770E-21
  54852.172    8.8541E-21
  54852.238    9.9325E-21
  54852.313    1.0931E-20
  54852.387    1.1426E-20
  54852.453    1.1896E-20
  54852.520    1.2262E-20
  54852.594    1.1893E-20
  54852.660    1.0776E-20
  54852.734    9.9730E-21
  54852.801    1.0184E-20
  54852.871    1.0233E-20
  54852.938    9.4662E-21
  54853.016    9.6030E-21
  54853.082    1.1612E-20
  54853.152    1.3836E-20
  54853.219    1.5914E-20
  54853.297    1.7627E-20
  54853.363    1.8836E-20
  54853.434    2.0286E-20
  54853.500    2.1612E-20
  54853.578    2.3406E-20
  54853.641    2.5513E-20
  54853.715    2.8118E-20
  54853.781    3.0320E-20
  54853.855    3.1680E-20
  54853.922    3.3728E-20
  54853.996    3.5740E-20
  54854.063    3.8524E-20
  54854.137    4.2069E-20
  54854.203    4.5726E-20
  54854.270    4.9570E-20
  54854.344    5.2636E-20
  54854.410    5.4981E-20
  54854.484    5.7176E-20
  54854.551    5.8118E-20
  54854.621    5.8769E-20
  54854.691    5.9293E-20
  54854.766    5.9313E-20
  54854.832    5.9058E-20
  54854.902    5.7184E-20
  54854.969    5.3067E-20
  54855.047    4.9162E-20
  54855.113    4.6341E-20
  54855.184    4.3916E-20
  54855.250    4.2523E-20
  54855.328    4.1808E-20
  54855.391    4.1133E-20
  54855.465    3.9355E-20
  54855.531    3.6790E-20
  54855.605    3.4055E-20
  54855.672    3.1848E-20
  54855.746    3.0462E-20
  54855.813    2.8301E-20
  54855.887    2.5871E-20
  54855.953    2.3742E-20
  54856.020    2.1715E-20
  54856.094    1.9639E-20
  54856.168    1.9057E-20
  54856.234    1.8338E-20
  54856.301    1.7027E-20
  54856.375    1.5887E-20
  54856.441    1.5069E-20
  54856.516    1.3702E-20
  54856.582    1.2155E-20
  54856.652    1.0912E-20
  54856.723    9.7251E-21
  54856.797    8.6312E-21
  54856.863    8.2562E-21
  54856.934    8.1437E-21
  54857.000    8.5691E-21
  54857.078    9.0244E-21
  54857.145    9.1883E-21
  54857.215    8.9353E-21
  54857.281    9.1431E-21
  54857.359    8.7397E-21
  54857.422    7.9260E-21
  54857.496    7.4346E-21
  54857.563    6.3862E-21
  54857.637    5.9829E-21
  54857.703    6.6641E-21
  54857.777    7.0446E-21
  54857.844    7.4426E-21
  54857.918    7.3285E-21
  54857.984    6.7701E-21
  54858.051    6.2278E-21
  54858.125    6.3861E-21
  54858.199    5.4245E-21
  54858.266    4.1738E-21
  54858.332    3.3589E-21
  54858.406    2.4198E-21
  54858.473    2.5098E-21
  54858.547    2.5240E-21
  54858.613    1.9979E-21
  54858.684    2.6173E-21
  54858.750    3.3473E-21
  54858.828    4.1584E-21
  54858.895    4.6392E-21
  54858.965    4.5585E-21
  54859.031    4.4031E-21
  54859.109    4.2615E-21
  54859.176    3.6589E-21
  54859.246    2.7468E-21
  54859.313    2.3182E-21
  54859.391    2.6360E-21
  54859.453    3.3498E-21
  54859.527    3.7719E-21
  54859.594    4.1052E-21
  54859.668    4.3939E-21
  54859.734    4.4576E-21
  54859.809    3.6158E-21
  54859.875    3.0163E-21
  54859.949    4.7957E-21
  54860.016    6.5528E-21
  54860.082    8.3928E-21
  54860.156    9.4122E-21
  54860.230    9.4064E-21
  54860.297    9.3000E-21
  54860.363    9.0111E-21
  54860.438    7.9896E-21
  54860.504    6.5257E-21
  54860.578    5.8042E-21
  54860.645    4.8151E-21
  54860.715    4.4567E-21
  54860.781    5.4494E-21
  54860.859    6.6301E-21
  54860.926    6.9929E-21
  54860.996    6.8107E-21
  54861.063    6.9027E-21
  54861.141    7.7253E-21
  54861.207    8.6436E-21
  54861.277    9.6627E-21
  54861.344    1.0031E-20
  54861.422    1.0028E-20
  54861.484    9.6567E-21
  54861.559    9.3792E-21
  54861.625    9.5604E-21
  54861.699    9.0876E-21
  54861.766    8.5253E-21
  54861.840    8.7024E-21
  54861.906    9.4359E-21
  54861.980    9.5249E-21
  54862.047    9.4279E-21
  54862.113    9.1409E-21
  54862.188    8.9473E-21
  54862.254    1.0347E-20
  54862.328    1.1293E-20
  54862.395    1.1957E-20
  54862.469    1.2244E-20
  54862.535    1.2436E-20
  54862.609    1.2622E-20
  54862.676    1.2898E-20
  54862.746    1.3751E-20
  54862.813    1.5095E-20
  54862.891    1.7245E-20
  54862.957    1.8532E-20
  54863.027    1.9731E-20
  54863.094    2.1352E-20
  54863.172    2.3203E-20
  54863.238    2.5602E-20
  54863.309    2.7504E-20
  54863.375    2.9866E-20
  54863.453    3.1935E-20
  54863.516    3.3373E-20
  54863.590    3.4269E-20
  54863.656    3.5734E-20
  54863.730    3.6988E-20
  54863.797    3.7559E-20
  54863.871    3.7553E-20
  54863.938    3.8595E-20
  54864.012    3.9763E-20
  54864.078    4.0705E-20
  54864.145    4.1417E-20
  54864.219    4.1535E-20
  54864.293    4.2011E-20
  54864.359    4.2850E-20
  54864.426    4.3572E-20
  54864.500    4.2722E-20
  54864.566    4.0573E-20
  54864.641    3.8698E-20
  54864.707    3.8127E-20
  54864.777    3.7330E-20
  54864.844    3.4935E-20
  54864.922    3.2134E-20
  54864.988    2.9169E-20
  54865.059    2.6479E-20
  54865.125    2.4162E-20
  54865.203    2.2310E-20
  54865.270    2.0985E-20
  54865.340    2.0278E-20
  54865.406    2.0078E-20
  54865.484    1.9875E-20
  54865.547    1.9868E-20
  54865.621    2.0674E-20
  54865.688    2.0469E-20
  54865.762    1.8756E-20
  54865.828    1.6775E-20
  54865.902    1.5515E-20
  54865.969    1.4263E-20
  54866.043    1.3687E-20
  54866.109    1.4068E-20
  54866.176    1.4640E-20
  54866.250    1.3957E-20
  54866.324    1.2802E-20
  54866.391    1.2132E-20
  54866.457    1.1558E-20
  54866.531    1.1457E-20
  54866.598    1.1453E-20
  54866.672    1.1260E-20
  54866.738    1.1639E-20
  54866.809    1.2022E-20
  54866.875    1.2118E-20
  54866.953    1.0692E-20
  54867.020    1.0026E-20
  54867.090    9.5510E-21
  54867.156    9.3601E-21
  54867.234    9.0765E-21
  54867.301    9.2596E-21
  54867.371    1.0290E-20
  54867.438    1.0856E-20
  54867.516    1.1236E-20
  54867.578    1.1233E-20
  54867.652    1.1132E-20
  54867.719    1.0561E-20
  54867.793    9.1537E-21
  54867.859    8.3167E-21
  54867.934    8.2228E-21
  54868.000    8.4975E-21
  54868.074    1.0167E-20
  54868.141    1.1668E-20
  54868.207    1.2042E-20
  54868.281    1.2423E-20
  54868.355    1.3286E-20
  54868.422    1.3770E-20
  54868.488    1.3001E-20
  54868.563    1.2712E-20
  54868.629    1.3379E-20
  54868.703    1.4047E-20
  54868.770    1.4626E-20
  54868.840    1.5010E-20
  54868.910    1.5583E-20
  54868.984    1.6449E-20
  54869.051    1.7627E-20
  54869.121    1.9425E-20
  54869.188    2.1152E-20
  54869.266    2.1869E-20
  54869.332    2.3417E-20
  54869.402    2.4872E-20
  54869.469    2.6443E-20
  54869.547    2.9111E-20
  54869.609    3.2170E-20
  54869.684    3.5193E-20
  54869.750    3.7482E-20
  54869.824    4.0635E-20
  54869.891    4.3498E-20
  54869.965    4.6796E-20
  54870.031    5.1077E-20
  54870.105    5.5238E-20
  54870.172    5.9259E-20
  54870.246    6.5113E-20
  54870.313    7.5204E-20
  54870.387    8.2554E-20
  54870.453    8.7805E-20
  54870.520    9.1431E-20
  54870.594    9.3574E-20
  54870.660    9.2711E-20
  54870.734    9.3447E-20
  54870.801    9.3875E-20
  54870.871    9.3263E-20
  54870.941    9.2329E-20
  54871.016    9.0626E-20
  54871.082    8.8117E-20
  54871.152    8.4817E-20
  54871.219    8.1475E-20
  54871.297    7.8432E-20
  54871.363    7.4965E-20
  54871.434    6.8970E-20
  54871.500    6.4341E-20
  54871.578    6.0017E-20
  54871.645    5.6231E-20
  54871.715    5.2550E-20
  54871.781    4.8583E-20
  54871.859    4.4000E-20
  54871.922    4.0402E-20
  54871.996    3.8175E-20
  54872.063    3.6436E-20
  54872.137    3.4267E-20
  54872.203    3.2244E-20
  54872.277    3.0146E-20
  54872.344    2.7654E-20
  54872.418    2.6054E-20
  54872.484    2.4260E-20
  54872.551    2.2897E-20
  54872.625    2.2058E-20
  54872.699    2.1332E-20
  54872.766    2.1125E-20
  54872.832    2.0916E-20
  54872.906    2.0599E-20
  54872.973    2.0181E-20
  54873.047    1.9362E-20
  54873.113    1.8753E-20
  54873.184    1.8844E-20
  54873.254    1.8629E-20
  54873.328    1.7511E-20
  54873.395    1.6701E-20
  54873.465    1.5407E-20
  54873.531    1.3545E-20
  54873.609    1.2279E-20
  54873.676    1.1218E-20
  54873.746    9.6940E-21
  54873.813    1.0149E-20
  54873.891    1.0706E-20
  54873.953    1.1058E-20
  54874.027    1.1499E-20
  54874.094    1.1565E-20
  54874.168    1.1817E-20
  54874.234    1.1117E-20
  54874.309    1.0126E-20
  54874.375    9.5129E-21
  54874.449    1.0195E-20
  54874.516    1.1256E-20
  54874.590    1.2205E-20
  54874.656    1.1706E-20
  54874.730    1.0999E-20
  54874.797    1.0287E-20
  54874.863    9.6491E-21
  54874.938    9.4396E-21
  54875.012    9.3805E-21
  54875.078    9.3565E-21
  54875.145    9.1492E-21
  54875.219    9.8062E-21
  54875.285    9.9463E-21
  54875.359    9.7684E-21
  54875.426    9.4834E-21
  54875.496    9.4407E-21
  54875.566    9.4516E-21
  54875.641    9.4222E-21
  54875.707    9.4099E-21
  54875.777    8.9616E-21
  54875.844    8.0527E-21
  54875.922    8.1112E-21
  54875.988    8.6125E-21
  54876.059    8.4144E-21
  54876.125    7.6575E-21
  54876.203    7.3140E-21
  54876.266    7.2636E-21
  54876.340    7.8114E-21
  54876.406    8.2647E-21
  54876.480    8.6672E-21
  54876.547    9.0460E-21
  54876.621    8.9012E-21
  54876.688    9.3316E-21
  54876.762    9.5201E-21
  54876.828    9.1191E-21
  54876.902    8.7376E-21
  54876.969    8.4542E-21
  54877.043    9.1532E-21
  54877.109    1.0027E-20
  54877.176    1.0613E-20
  54877.250    1.1594E-20
  54877.316    1.2947E-20
  54877.391    1.4115E-20
  54877.457    1.4947E-20
  54877.531    1.4637E-20
  54877.598    1.4416E-20
  54877.672    1.4474E-20
  54877.738    1.4520E-20
  54877.809    1.4952E-20
  54877.875    1.4883E-20
  54877.953    1.5901E-20
  54878.020    1.7816E-20
  54878.090    2.0272E-20
  54878.156    2.2459E-20
  54878.234    2.4476E-20
  54878.301    2.5768E-20
  54878.371    2.7386E-20
  54878.438    2.8374E-20
  54878.516    2.9371E-20
  54878.578    3.1358E-20
  54878.652    3.3474E-20
  54878.719    3.6540E-20
  54878.793    3.9446E-20
  54878.859    4.2658E-20
  54878.934    4.6198E-20
  54879.000    4.9336E-20
  54879.074    5.2161E-20
  54879.141    5.4525E-20
  54879.215    5.6396E-20
  54879.281    5.8289E-20
  54879.355    6.0216E-20
  54879.422    6.3443E-20
  54879.488    6.6027E-20
  54879.563    6.7473E-20
  54879.629    6.8049E-20
  54879.703    6.7166E-20
  54879.770    6.5859E-20
  54879.844    6.4710E-20
  54879.910    6.3293E-20
  54879.984    6.2457E-20
  54880.051    6.1078E-20
  54880.121    5.9437E-20
  54880.188    5.6731E-20
  54880.266    5.3151E-20
  54880.332    5.0039E-20
  54880.402    4.6754E-20
  54880.469    4.3079E-20
  54880.547    4.0454E-20
  54880.613    3.9036E-20
  54880.684    3.8098E-20
  54880.750    3.6818E-20
  54880.828    3.5086E-20
  54880.891    3.3716E-20
  54880.965    3.1463E-20
  54881.031    2.9364E-20
  54881.105    2.7622E-20
  54881.172    2.5278E-20
  54881.246    2.3706E-20
  54881.313    2.2143E-20
  54881.387    2.0594E-20
  54881.453    1.8761E-20
  54881.527    1.6360E-20
  54881.594    1.5268E-20
  54881.668    1.5848E-20
  54881.734    1.6731E-20
  54881.801    1.7717E-20
  54881.875    1.9219E-20
  54881.949    1.9419E-20
  54882.016    1.9015E-20
  54882.082    1.8518E-20
  54882.156    1.8623E-20
  54882.223    1.8914E-20
  54882.297    1.9408E-20
  54882.363    1.8097E-20
  54882.434    1.6989E-20
  54882.504    1.7377E-20
  54882.578    1.6771E-20
  54882.645    1.6164E-20
  54882.715    1.6246E-20
  54882.781    1.6832E-20
  54882.859    1.7313E-20
  54882.926    1.8197E-20
  54882.996    1.8986E-20
  54883.063    2.0178E-20
  54883.141    2.1076E-20
  54883.203    2.1575E-20
  54883.277    2.1342E-20
  54883.344    2.1006E-20
  54883.422    2.1490E-20
  54883.484    2.2503E-20
  54883.559    2.3323E-20
  54883.625    2.5093E-20
  54883.699    2.5714E-20
  54883.766    2.6019E-20
  54883.840    2.6313E-20
  54883.906    2.7789E-20
  54883.980    2.9831E-20
  54884.047    3.1349E-20
  54884.113    3.2540E-20
  54884.188    3.3841E-20
  54884.262    3.5384E-20
  54884.328    3.8010E-20
  54884.395    4.1283E-20
  54884.469    4.5133E-20
  54884.535    4.8835E-20
  54884.609    5.2636E-20
  54884.676    5.7934E-20
  54884.746    6.3466E-20
  54884.816    7.6835E-20
  54884.891    8.4058E-20
  54884.957    9.0539E-20
  54885.027    9.6649E-20
  54885.094    1.0328E-19
  54885.172    1.0934E-19
  54885.238    1.1561E-19
  54885.309    1.2093E-19
  54885.375    1.2522E-19
  54885.453    1.2807E-19
  54885.520    1.3172E-19
  54885.590    1.3280E-19
  54885.656    1.3259E-19
  54885.734    1.3174E-19
  54885.797    1.3032E-19
  54885.871    1.2823E-19
  54885.938    1.2567E-19
  54886.012    1.2318E-19
  54886.078    1.1726E-19
  54886.152    1.1155E-19
  54886.219    1.0570E-19
  54886.293    1.0023E-19
  54886.359    9.6862E-20
  54886.434    9.0964E-20
  54886.500    8.4673E-20
  54886.574    7.7887E-20
  54886.641    7.1989E-20
  54886.707    6.7348E-20
  54886.781    6.4444E-20
  54886.855    6.0866E-20
  54886.922    5.6750E-20
  54886.988    5.3054E-20
  54887.063    4.9415E-20
  54887.129    4.6073E-20
  54887.203    4.2429E-20
  54887.270    3.9924E-20
  54887.340    3.8692E-20
  54887.410    3.5645E-20
  54887.484    3.1792E-20
  54887.551    2.9477E-20
  54887.621    2.8572E-20
  54887.688    2.8769E-20
  54887.766    2.8354E-20
  54887.832    2.6754E-20
  54887.902    2.4191E-20
  54887.969    2.2741E-20
  54888.047    2.1566E-20
  54888.109    2.1256E-20
  54888.184    2.1789E-20
  54888.250    2.1542E-20
  54888.328    2.1427E-20
  54888.391    2.0623E-20
  54888.465    1.9965E-20
  54888.531    2.0174E-20
  54888.605    1.9859E-20
  54888.672    1.9257E-20
  54888.746    1.8447E-20
  54888.813    1.7901E-20
  54888.887    1.7754E-20
  54888.953    1.7716E-20
  54889.020    1.7781E-20
  54889.094    1.7922E-20
  54889.168    1.8547E-20
  54889.234    1.8642E-20
  54889.301    1.8523E-20
  54889.375    1.8300E-20
  54889.441    1.8463E-20
  54889.516    1.9035E-20
  54889.582    1.8890E-20
  54889.656    1.8533E-20
  54889.723    1.7069E-20
  54889.797    1.5830E-20
  54889.863    1.4790E-20
  54889.934    1.4432E-20
  54890.000    1.4556E-20
  54890.078    1.4290E-20
  54890.145    1.4121E-20
  54890.215    1.4541E-20
  54890.281    1.4467E-20
  54890.359    1.4881E-20
  54890.426    1.4896E-20
  54890.496    1.5203E-20
  54890.563    1.5320E-20
  54890.641    1.5248E-20
  54890.703    1.5270E-20
  54890.777    1.5299E-20
  54890.844    1.5807E-20
  54890.922    1.7203E-20
  54890.984    1.7705E-20
  54891.059    1.7709E-20
  54891.125    1.7711E-20
  54891.199    1.7911E-20
  54891.266    1.8715E-20
  54891.340    1.8520E-20
  54891.406    1.8128E-20
  54891.480    1.7439E-20
  54891.547    1.6653E-20
  54891.613    1.7456E-20
  54891.688    1.9876E-20
  54891.762    2.2133E-20
  54891.828    2.3587E-20
  54891.895    2.4948E-20
  54891.969    2.5896E-20
  54892.035    2.7291E-20
  54892.109    2.9356E-20
  54892.176    3.2003E-20
  54892.250    3.4363E-20
  54892.316    3.5616E-20
  54892.391    3.7694E-20
  54892.457    4.1716E-20
  54892.527    4.6362E-20
  54892.598    5.1444E-20
  54892.672    5.6332E-20
  54892.738    6.1264E-20
  54892.809    6.6096E-20
  54892.875    7.3904E-20
  54892.953    7.9017E-20
  54893.020    8.3915E-20
  54893.090    8.7935E-20
  54893.156    9.3061E-20
  54893.234    9.6560E-20
  54893.297    1.0062E-19
  54893.371    1.0360E-19
  54893.438    1.0606E-19
  54893.516    1.0720E-19
  54893.578    1.0773E-19
  54893.652    1.0725E-19
  54893.719    1.0556E-19
  54893.793    1.0277E-19
  54893.859    9.9749E-20
  54893.934    9.5974E-20
  54894.000    9.2375E-20
  54894.074    8.8977E-20
  54894.141    8.5577E-20
  54894.215    8.1112E-20
  54894.281    7.6544E-20
  54894.355    7.4345E-20
  54894.422    7.0551E-20
  54894.488    6.5993E-20
  54894.563    6.1865E-20
  54894.637    5.8545E-20
  54894.703    5.4770E-20
  54894.770    5.0332E-20
  54894.844    4.6920E-20
  54894.910    4.4210E-20
  54894.984    4.1558E-20
  54895.051    3.8713E-20
  54895.121    3.6619E-20
  54895.191    3.4893E-20
  54895.266    3.2519E-20
  54895.332    3.0856E-20
  54895.402    2.9535E-20
  54895.469    2.9210E-20
  54895.547    2.8781E-20
  54895.613    2.9328E-20
  54895.684    2.9984E-20
  54895.750    3.0091E-20
  54895.828    2.9090E-20
  54895.895    2.7132E-20
  54895.965    2.5417E-20
  54896.031    2.4569E-20
  54896.109    2.4893E-20
  54896.172    2.5853E-20
  54896.246    2.7136E-20
  54896.313    2.8003E-20
  54896.387    2.8328E-20
  54896.453    2.7250E-20
  54896.527    2.6186E-20
  54896.594    2.6405E-20
  54896.668    2.6622E-20
  54896.734    2.7586E-20
  54896.809    2.9315E-20
  54896.875    3.0848E-20
  54896.949    3.2282E-20
  54897.016    3.3394E-20
  54897.082    3.4400E-20
  54897.156    3.5639E-20
  54897.230    3.7128E-20
  54897.297    3.8529E-20
  54897.363    4.0538E-20
  54897.438    4.3059E-20
  54897.504    4.5128E-20
  54897.578    4.6856E-20
  54897.645    4.8739E-20
  54897.715    5.1426E-20
  54897.785    5.5227E-20
  54897.859    5.9002E-20
  54897.926    6.3169E-20
  54897.996    6.6735E-20
  54898.063    7.7970E-20
  54898.141    8.2965E-20
  54898.207    8.8708E-20
  54898.277    1.0013E-19
  54898.344    1.0944E-19
  54898.422    1.1855E-19
  54898.488    1.2857E-19
  54898.559    1.3685E-19
  54898.625    1.4479E-19
  54898.703    1.5164E-19
  54898.766    1.5797E-19
  54898.840    1.6381E-19
  54898.906    1.6822E-19
  54898.984    1.7105E-19
  54899.047    1.7349E-19
  54899.121    1.7437E-19
  54899.188    1.7242E-19
  54899.262    1.6912E-19
  54899.328    1.6391E-19
  54899.402    1.5839E-19
  54899.469    1.5253E-19
  54899.543    1.4581E-19
  54899.609    1.3863E-19
  54899.684    1.3077E-19
  54899.750    1.2242E-19
  54899.824    1.1337E-19
  54899.891    1.0817E-19
  54899.957    1.0124E-19
  54900.031    9.3463E-20
  54900.105    8.6239E-20
  54900.172    7.6530E-20
  54900.238    7.1573E-20
  54900.313    6.6103E-20
  54900.379    6.0716E-20
  54900.453    5.6218E-20
  54900.520    5.1869E-20
  54900.590    4.7536E-20
  54900.660    4.4196E-20
  54900.734    4.2139E-20
  54900.801    4.0586E-20
  54900.871    4.0004E-20
  54900.938    3.8472E-20
  54901.016    3.5459E-20
  54901.082    3.2964E-20
  54901.152    3.1066E-20
  54901.219    2.9620E-20
  54901.297    2.7866E-20
  54901.363    2.6457E-20
  54901.434    2.5806E-20
  54901.500    2.5593E-20
  54901.578    2.4742E-20
  54901.641    2.3903E-20
  54901.715    2.4021E-20
  54901.781    2.3823E-20
  54901.859    2.3103E-20
  54901.922    2.2272E-20
  54901.996    2.0932E-20
  54902.063    1.9297E-20
  54902.137    1.8284E-20
  54902.203    1.7682E-20
  54902.277    1.7680E-20
  54902.344    1.7894E-20
  54902.418    1.8312E-20
  54902.484    1.8898E-20
  54902.559    1.9090E-20
  54902.625    1.9181E-20
  54902.699    1.9882E-20
  54902.766    2.0593E-20
  54902.832    2.1102E-20
  54902.906    2.1818E-20
  54902.980    2.1807E-20
  54903.047    2.1391E-20
  54903.113    2.1393E-20
  54903.188    2.1606E-20
  54903.254    2.1604E-20
  54903.328    2.2222E-20
  54903.395    2.2945E-20
  54903.465    2.3671E-20
  54903.535    2.4713E-20
  54903.609    2.6205E-20
  54903.676    2.6853E-20
  54903.746    2.6967E-20
  54903.813    2.7613E-20
  54903.891    2.8041E-20
  54903.957    2.8467E-20
  54904.027    2.8895E-20
  54904.094    2.9647E-20
  54904.172    3.1956E-20
  54904.238    3.3969E-20
  54904.309    3.6366E-20
  54904.375    3.9288E-20
  54904.453    4.2277E-20
  54904.520    4.5582E-20
  54904.590    4.8974E-20
  54904.656    5.2319E-20
  54904.734    5.5746E-20
  54904.797    5.9537E-20
  54904.871    6.3869E-20
  54904.938    6.9089E-20
  54905.012    7.5151E-20
  54905.078    8.3031E-20
  54905.152    9.0831E-20
  54905.219    1.0261E-19
  54905.293    1.1147E-19
  54905.359    1.1911E-19
  54905.434    1.2516E-19
  54905.500    1.3029E-19
  54905.574    1.3322E-19
  54905.641    1.3781E-19
  54905.707    1.4159E-19
  54905.781    1.4504E-19
  54905.855    1.4803E-19
  54905.922    1.4903E-19
  54905.988    1.4894E-19
  54906.063    1.4841E-19
  54906.129    1.4580E-19
  54906.203    1.4233E-19
  54906.270    1.3830E-19
  54906.344    1.3289E-19
  54906.410    1.2658E-19
  54906.484    1.1968E-19
  54906.551    1.1285E-19
  54906.621    1.0581E-19
  54906.691    9.9174E-20
  54906.766    9.3519E-20
  54906.832    8.8677E-20
  54906.902    8.3095E-20
  54906.969    8.2181E-20
  54907.047    7.5836E-20
  54907.113    6.9387E-20
  54907.184    6.6145E-20
  54907.250    6.3264E-20
  54907.328    6.0309E-20
  54907.395    5.8244E-20
  54907.465    5.5142E-20
  54907.531    5.1202E-20
  54907.609    4.8012E-20
  54907.672    4.6142E-20
  54907.746    4.3932E-20
  54907.813    4.2600E-20
  54907.891    4.1765E-20
  54907.953    4.1649E-20
  54908.027    4.2495E-20
  54908.094    4.3104E-20
  54908.168    4.3106E-20
  54908.234    4.2374E-20
  54908.309    4.2491E-20
  54908.375    4.2607E-20
  54908.449    4.2836E-20
  54908.516    4.3433E-20
  54908.590    4.4530E-20
  54908.656    4.5763E-20
  54908.730    4.7889E-20
  54908.797    4.9923E-20
  54908.863    5.1991E-20
  54908.938    5.2508E-20
  54909.012    5.3823E-20
  54909.078    5.6223E-20
  54909.145    5.8941E-20
  54909.219    6.2270E-20
  54909.285    6.6119E-20
  54909.359    6.9185E-20
  54909.426    7.4930E-20
  54909.500    8.0352E-20
  54909.566    8.6526E-20
  54909.641    9.3803E-20
  54909.707    1.0614E-19
  54909.777    1.1554E-19
  54909.848    1.2553E-19
  54909.922    1.3441E-19
  54909.988    1.4354E-19
  54910.059    1.4918E-19
  54910.125    1.5955E-19
  54910.203    1.6935E-19
  54910.270    1.7903E-19
  54910.340    1.8939E-19
  54910.406    1.9759E-19
  54910.484    2.0465E-19
  54910.551    2.0927E-19
  54910.621    2.1080E-19
  54910.688    2.1036E-19
  54910.766    2.0913E-19
  54910.828    2.0760E-19
  54910.902    2.0314E-19
  54910.969    1.9556E-19
  54911.047    1.8712E-19
  54911.109    1.7791E-19
  54911.184    1.6766E-19
  54911.250    1.5799E-19
  54911.324    1.4858E-19
  54911.391    1.3878E-19
  54911.465    1.2925E-19
  54911.531    1.2088E-19
  54911.605    1.1186E-19
  54911.672    1.0461E-19
  54911.746    9.7810E-20
  54911.813    9.1379E-20
  54911.887    8.5303E-20
  54911.953    7.9965E-20
  54912.020    7.3463E-20
  54912.094    6.7951E-20
  54912.168    6.3657E-20
  54912.234    6.0184E-20
  54912.301    5.6934E-20
  54912.375    5.3245E-20
  54912.441    4.9664E-20
  54912.516    4.6920E-20
  54912.582    4.5200E-20
  54912.656    4.3504E-20
  54912.723    4.2427E-20
  54912.797    4.1601E-20
  54912.863    4.1018E-20
  54912.934    4.0427E-20
  54913.004    3.9366E-20
  54913.078    3.7622E-20
  54913.145    3.5789E-20
  54913.215    3.4883E-20
  54913.281    3.4654E-20
  54913.359    3.3201E-20
  54913.426    3.1541E-20
  54913.496    3.0446E-20
  54913.563    3.1099E-20
  54913.641    3.2536E-20
  54913.707    3.3426E-20
  54913.777    3.4311E-20
  54913.844    3.3848E-20
  54913.922    3.2275E-20
  54913.988    2.9970E-20
  54914.059    2.8347E-20
  54914.125    2.8868E-20
  54914.203    3.1569E-20
  54914.266    3.4554E-20
  54914.340    3.6934E-20
  54914.406    3.8314E-20
  54914.480    3.9827E-20
  54914.547    4.0296E-20
  54914.621    4.0644E-20
  54914.688    4.1572E-20
  54914.762    4.2748E-20
  54914.828    4.3820E-20
  54914.902    4.5147E-20
  54914.969    4.6734E-20
  54915.043    4.8714E-20
  54915.109    5.1626E-20
  54915.184    5.5395E-20
  54915.250    6.0120E-20
  54915.324    6.4862E-20
  54915.391    6.8022E-20
  54915.457    7.0810E-20
  54915.531    7.4737E-20
  54915.605    7.7988E-20
  54915.672    8.4170E-20
  54915.738    8.9653E-20
  54915.813    9.8327E-20
  54915.879    1.0956E-19
  54915.953    1.1877E-19
  54916.020    1.2867E-19
  54916.094    1.3525E-19
  54916.160    1.4546E-19
  54916.234    1.5532E-19
  54916.301    1.6501E-19
  54916.371    1.7458E-19
  54916.441    1.8258E-19
  54916.516    1.8900E-19
  54916.582    1.9390E-19
  54916.652    1.9600E-19
  54916.719    1.9655E-19
  54916.797    1.9705E-19
  54916.863    1.9678E-19
  54916.934    1.9475E-19
  54917.000    1.9098E-19
  54917.078    1.8584E-19
  54917.145    1.7957E-19
  54917.215    1.7250E-19
  54917.281    1.6483E-19
  54917.359    1.5690E-19
  54917.426    1.4855E-19
  54917.496    1.3993E-19
  54917.563    1.3122E-19
  54917.641    1.2369E-19
  54917.703    1.1577E-19
  54917.777    1.0840E-19
  54917.844    1.0236E-19
  54917.918    9.6566E-20
  54917.984    9.1626E-20
  54918.059    8.6932E-20
  54918.125    8.2899E-20
  54918.199    8.0676E-20
  54918.266    7.8326E-20
  54918.340    7.6541E-20
  54918.406    7.3051E-20
  54918.480    7.0861E-20
  54918.547    6.9296E-20
  54918.621    6.7305E-20
  54918.688    6.6510E-20
  54918.762    6.6548E-20
  54918.828    6.9583E-20
  54918.895    6.9750E-20
  54918.969    6.9987E-20
  54919.043    7.0087E-20
  54919.109    7.0297E-20
  54919.176    7.0130E-20
  54919.250    7.3887E-20
  54919.316    7.5686E-20
  54919.391    7.6733E-20
  54919.457    8.0170E-20
  54919.531    8.4900E-20
  54919.598    9.2735E-20
  54919.672    9.8177E-20
  54919.738    1.0359E-19
  54919.809    1.0916E-19
  54919.879    1.1434E-19
  54919.953    1.2090E-19
  54920.020    1.2643E-19
  54920.090    1.3317E-19
  54920.156    1.4225E-19
  54920.234    1.5339E-19
  54920.301    1.6481E-19
  54920.371    1.7689E-19
  54920.438    1.8902E-19
  54920.516    2.0067E-19
  54920.582    2.1050E-19
  54920.652    2.1795E-19
  54920.719    2.2423E-19
  54920.797    2.2981E-19
  54920.863    2.3355E-19
  54920.934    2.3676E-19
  54921.000    2.3848E-19
  54921.078    2.3698E-19
  54921.141    2.3452E-19
  54921.215    2.2995E-19
  54921.281    2.2272E-19
  54921.359    2.1508E-19
  54921.422    2.0737E-19
  54921.496    1.9862E-19
  54921.563    1.8837E-19
  54921.637    1.7845E-19
  54921.703    1.6891E-19
  54921.777    1.5837E-19
  54921.844    1.4797E-19
  54921.918    1.3865E-19
  54921.984    1.2950E-19
  54922.059    1.2067E-19
  54922.125    1.1298E-19
  54922.199    1.0652E-19
  54922.266    1.0226E-19
  54922.340    9.6321E-20
  54922.406    9.0147E-20
  54922.480    8.4695E-20
  54922.547    8.0396E-20
  54922.613    7.7756E-20
  54922.688    7.6059E-20
  54922.762    7.3837E-20
  54922.828    7.1460E-20
  54922.895    6.8540E-20
  54922.969    6.6120E-20
  54923.035    6.4025E-20
  54923.109    6.2547E-20
  54923.176    6.2048E-20
  54923.250    6.1108E-20
  54923.316    5.9886E-20
  54923.391    5.8699E-20
  54923.457    5.8057E-20
  54923.527    5.7417E-20
  54923.598    5.6508E-20
  54923.672    5.6378E-20
  54923.738    5.6244E-20
  54923.809    5.6816E-20
  54923.879    5.7799E-20
  54923.953    5.8645E-20
  54924.020    5.8804E-20
  54924.090    5.9371E-20
  54924.156    5.9652E-20
  54924.234    5.9649E-20
  54924.301    6.0051E-20
  54924.371    6.0590E-20
  54924.438    6.2125E-20
  54924.516    6.4976E-20
  54924.582    6.8331E-20
  54924.652    7.2982E-20
  54924.719    7.5915E-20
  54924.797    7.8696E-20
  54924.859    8.1905E-20
  54924.934    8.5717E-20
  54925.000    9.0843E-20
  54925.078    9.5962E-20
  54925.141    1.0217E-19
  54925.215    1.0965E-19
  54925.281    1.1776E-19
  54925.355    1.2597E-19
  54925.422    1.3493E-19
  54925.496    1.4450E-19
  54925.563    1.5564E-19
  54925.637    1.6733E-19
  54925.703    1.7965E-19
  54925.777    1.9188E-19
  54925.844    2.0256E-19
  54925.918    2.1331E-19
  54925.984    2.2353E-19
  54926.059    2.3213E-19
  54926.125    2.3895E-19
  54926.199    2.4438E-19
  54926.266    2.4810E-19
  54926.332    2.5044E-19
  54926.406    2.5165E-19
  54926.480    2.5028E-19
  54926.547    2.4584E-19
  54926.613    2.3942E-19
  54926.688    2.3062E-19
  54926.762    2.2143E-19
  54926.828    2.1228E-19
  54926.895    2.0279E-19
  54926.969    1.9456E-19
  54927.035    1.8654E-19
  54927.109    1.7830E-19
  54927.176    1.6950E-19
  54927.250    1.6033E-19
  54927.316    1.5097E-19
  54927.391    1.4336E-19
  54927.457    1.3578E-19
  54927.527    1.2903E-19
  54927.598    1.2397E-19
  54927.672    1.1978E-19
  54927.738    1.1513E-19
  54927.809    1.1163E-19
  54927.875    1.0852E-19
  54927.953    1.0592E-19
  54928.020    1.0441E-19
  54928.090    1.0392E-19
  54928.156    1.0478E-19
  54928.234    1.0620E-19
  54928.301    1.0729E-19
  54928.371    1.0878E-19
  54928.438    1.1083E-19
  54928.516    1.1372E-19
  54928.582    1.1764E-19
  54928.652    1.2113E-19
  54928.719    1.2640E-19
  54928.797    1.3405E-19
  54928.859    1.4310E-19
  54928.934    1.5345E-19
  54929.000    1.6378E-19
  54929.078    1.7508E-19
  54929.141    1.8757E-19
  54929.215    1.9959E-19
  54929.281    2.1216E-19
  54929.355    2.2470E-19
  54929.422    2.3629E-19
  54929.496    2.4825E-19
  54929.563    2.5520E-19
  54929.637    2.6019E-19
  54929.703    2.6266E-19
  54929.777    2.6149E-19
  54929.844    2.5843E-19
  54929.918    2.5308E-19
  54929.984    2.4569E-19
  54930.059    2.3706E-19
  54930.125    2.2882E-19
  54930.199    2.2032E-19
  54930.266    2.1234E-19
  54930.340    2.0462E-19
  54930.406    1.9446E-19
  54930.480    1.8228E-19
  54930.547    1.7042E-19
  54930.613    1.5771E-19
  54930.688    1.4671E-19
  54930.762    1.3693E-19
  54930.828    1.2835E-19
  54930.895    1.2080E-19
  54930.969    1.1534E-19
  54931.043    1.1047E-19
  54931.109    1.0732E-19
  54931.176    1.0325E-19
  54931.250    1.0096E-19
  54931.316    9.8312E-20
  54931.391    9.5604E-20
  54931.457    9.2873E-20
  54931.527    9.0206E-20
  54931.598    8.7118E-20
  54931.672    8.5370E-20
  54931.738    8.5432E-20
  54931.809    8.5040E-20
  54931.879    8.5772E-20
  54931.953    8.6263E-20
  54932.020    8.6633E-20
  54932.090    8.7444E-20
  54932.156    8.8482E-20
  54932.234    8.9643E-20
  54932.301    9.3364E-20
  54932.371    9.5222E-20
  54932.438    9.7783E-20
  54932.516    1.0034E-19
  54932.582    1.0281E-19
  54932.652    1.0576E-19
  54932.719    1.0993E-19
  54932.797    1.1581E-19
  54932.863    1.2127E-19
  54932.934    1.2613E-19
  54933.000    1.3035E-19
  54933.078    1.3656E-19
  54933.141    1.4432E-19
  54933.215    1.5335E-19
  54933.281    1.6435E-19
  54933.359    1.7553E-19
  54933.422    1.8815E-19
  54933.496    2.0147E-19
  54933.563    2.1425E-19
  54933.641    2.2706E-19
  54933.703    2.4128E-19
  54933.777    2.5488E-19
  54933.844    2.6878E-19
  54933.918    2.7923E-19
  54933.984    2.8766E-19
  54934.059    2.9360E-19
  54934.125    2.9946E-19
  54934.199    3.0378E-19
  54934.266    3.0591E-19
  54934.340    3.0603E-19
  54934.406    3.0324E-19
  54934.480    2.9703E-19
  54934.547    2.8776E-19
  54934.621    2.7794E-19
  54934.688    2.6709E-19
  54934.762    2.5549E-19
  54934.828    2.4473E-19
  54934.895    2.3349E-19
  54934.969    2.2180E-19
  54935.043    2.1000E-19
  54935.109    1.9892E-19
  54935.176    1.8824E-19
  54935.250    1.7881E-19
  54935.324    1.7093E-19
  54935.391    1.6393E-19
  54935.457    1.5737E-19
  54935.531    1.5251E-19
  54935.598    1.5024E-19
  54935.672    1.4984E-19
  54935.738    1.4989E-19
  54935.813    1.5016E-19
  54935.879    1.5166E-19
  54935.953    1.5405E-19
  54936.020    1.5795E-19
  54936.090    1.6426E-19
  54936.160    1.7142E-19
  54936.234    1.7893E-19
  54936.301    1.8716E-19
  54936.371    1.9519E-19
  54936.441    2.0244E-19
  54936.516    2.0931E-19
  54936.582    2.1682E-19
  54936.652    2.2400E-19
  54936.719    2.3014E-19
  54936.797    2.3499E-19
  54936.863    2.3808E-19
  54936.934    2.3943E-19
  54937.000    2.3830E-19
  54937.078    2.3631E-19
  54937.145    2.3403E-19
  54937.215    2.2918E-19
  54937.281    2.2219E-19
  54937.359    2.1463E-19
  54937.426    2.0710E-19
  54937.496    1.9935E-19
  54937.563    1.9152E-19
  54937.641    1.8345E-19
  54937.707    1.7633E-19
  54937.777    1.6897E-19
  54937.844    1.6206E-19
  54937.922    1.5674E-19
  54937.984    1.5127E-19
  54938.059    1.4579E-19
  54938.125    1.4198E-19
  54938.203    1.3866E-19
  54938.266    1.3606E-19
  54938.340    1.3443E-19
  54938.406    1.3293E-19
  54938.480    1.3145E-19
  54938.547    1.2980E-19
  54938.621    1.2843E-19
  54938.688    1.2813E-19
  54938.762    1.2965E-19
  54938.828    1.3212E-19
  54938.902    1.3451E-19
  54938.969    1.3782E-19
  54939.043    1.4245E-19
  54939.109    1.4751E-19
  54939.184    1.5342E-19
  54939.250    1.5999E-19
  54939.324    1.6709E-19
  54939.391    1.7466E-19
  54939.465    1.8366E-19
  54939.531    1.9426E-19
  54939.605    2.0633E-19
  54939.672    2.2066E-19
  54939.738    2.3552E-19
  54939.813    2.5035E-19
  54939.887    2.6695E-19
  54939.953    2.8061E-19
  54940.020    2.9535E-19
  54940.094    3.1051E-19
  54940.168    3.2488E-19
  54940.234    3.3725E-19
  54940.301    3.4681E-19
  54940.375    3.5217E-19
  54940.441    3.5391E-19
  54940.516    3.5329E-19
  54940.582    3.5212E-19
  54940.656    3.4832E-19
  54940.723    3.4273E-19
  54940.797    3.3517E-19
  54940.863    3.2410E-19
  54940.934    3.1208E-19
  54941.004    2.9932E-19
  54941.078    2.8655E-19
  54941.145    2.7581E-19
  54941.215    2.6590E-19
  54941.285    2.5660E-19
  54941.359    2.4763E-19
  54941.426    2.3848E-19
  54941.496    2.3030E-19
  54941.563    2.2372E-19
  54941.641    2.1889E-19
  54941.707    2.1648E-19
  54941.777    2.1572E-19
  54941.844    2.1627E-19
  54941.922    2.1751E-19
  54941.988    2.1890E-19
  54942.059    2.1950E-19
  54942.125    2.2036E-19
  54942.203    2.2118E-19
  54942.270    2.2169E-19
  54942.340    2.2114E-19
  54942.406    2.2007E-19
  54942.484    2.1901E-19
  54942.551    2.1820E-19
  54942.621    2.1492E-19
  54942.688    2.0973E-19
  54942.766    2.0518E-19
  54942.828    2.0032E-19
  54942.902    1.9397E-19
  54942.969    1.8691E-19
  54943.047    1.8070E-19
  54943.109    1.7654E-19
  54943.184    1.7210E-19
  54943.250    1.6807E-19
  54943.328    1.6441E-19
  54943.391    1.6120E-19
  54943.465    1.6007E-19
  54943.531    1.5969E-19
  54943.605    1.6023E-19
  54943.672    1.6162E-19
  54943.746    1.6270E-19
  54943.813    1.6375E-19
  54943.887    1.6565E-19
  54943.953    1.6829E-19
  54944.027    1.7260E-19
  54944.094    1.7717E-19
  54944.168    1.8254E-19
  54944.234    1.8943E-19
  54944.309    1.9688E-19
  54944.375    2.0605E-19
  54944.449    2.1695E-19
  54944.516    2.2877E-19
  54944.590    2.4192E-19
  54944.656    2.5639E-19
  54944.730    2.7245E-19
  54944.797    2.8670E-19
  54944.863    3.0175E-19
  54944.938    3.1589E-19
  54945.012    3.2780E-19
  54945.078    3.3755E-19
  54945.145    3.4756E-19
  54945.219    3.5366E-19
  54945.293    3.5812E-19
  54945.359    3.6222E-19
  54945.426    3.6339E-19
  54945.500    3.6070E-19
  54945.574    3.5818E-19
  54945.641    3.5410E-19
  54945.707    3.4937E-19
  54945.781    3.4292E-19
  54945.848    3.3548E-19
  54945.922    3.2726E-19
  54945.988    3.1900E-19
  54946.063    3.1148E-19
  54946.129    3.0368E-19
  54946.203    2.9599E-19
  54946.270    2.8863E-19
  54946.340    2.7957E-19
  54946.410    2.7119E-19
  54946.484    2.6325E-19
  54946.551    2.5405E-19
  54946.621    2.4709E-19
  54946.691    2.4109E-19
  54946.766    2.3365E-19
  54946.832    2.2666E-19
  54946.902    2.1955E-19
  54946.969    2.1395E-19
  54947.047    2.0946E-19
  54947.113    2.0584E-19
  54947.184    2.0327E-19
  54947.250    2.0194E-19
  54947.328    2.0109E-19
  54947.395    2.0059E-19
  54947.465    2.0172E-19
  54947.531    2.0259E-19
  54947.609    2.0432E-19
  54947.676    2.0870E-19
  54947.746    2.1422E-19
  54947.813    2.2202E-19
  54947.891    2.3093E-19
  54947.957    2.4104E-19
  54948.027    2.5320E-19
  54948.094    2.6815E-19
  54948.172    2.7993E-19
  54948.238    2.9238E-19
  54948.309    3.0602E-19
  54948.375    3.1938E-19
  54948.453    3.3205E-19
  54948.516    3.4258E-19
  54948.590    3.5191E-19
  54948.656    3.5929E-19
  54948.734    3.6339E-19
  54948.797    3.6775E-19
  54948.871    3.7263E-19
  54948.938    3.7523E-19
  54949.016    3.7636E-19
  54949.078    3.7347E-19
  54949.152    3.6924E-19
  54949.219    3.6267E-19
  54949.293    3.5518E-19
  54949.359    3.4825E-19
  54949.434    3.4102E-19
  54949.500    3.3346E-19
  54949.574    3.2740E-19
  54949.641    3.2188E-19
  54949.715    3.1619E-19
  54949.781    3.1235E-19
  54949.855    3.1075E-19
  54949.922    3.1064E-19
  54949.996    3.1128E-19
  54950.063    3.1355E-19
  54950.137    3.1568E-19
  54950.203    3.1702E-19
  54950.277    3.1659E-19
  54950.344    3.1414E-19
  54950.418    3.1110E-19
  54950.484    3.0679E-19
  54950.559    2.9925E-19
  54950.625    2.8942E-19
  54950.699    2.7995E-19
  54950.766    2.6903E-19
  54950.832    2.5615E-19
  54950.906    2.4415E-19
  54950.980    2.3062E-19
  54951.047    2.1655E-19
  54951.113    2.0375E-19
  54951.188    1.9214E-19
  54951.262    1.8117E-19
  54951.328    1.6999E-19
  54951.395    1.5963E-19
  54951.469    1.4958E-19
  54951.543    1.4049E-19
  54951.609    1.3219E-19
  54951.676    1.2484E-19
  54951.750    1.1803E-19
  54951.816    1.1175E-19
  54951.891    1.0713E-19
  54951.957    1.0306E-19
  54952.031    1.0015E-19
  54952.098    9.6594E-20
  54952.172    9.4970E-20
  54952.238    9.3097E-20
  54952.309    9.1528E-20
  54952.379    9.0550E-20
  54952.453    9.0076E-20
  54952.520    8.9890E-20
  54952.590    8.9003E-20
  54952.660    8.7976E-20
  54952.734    8.7855E-20
  54952.801    8.7867E-20
  54952.871    8.6727E-20
  54952.941    8.5292E-20
  54953.016    8.4206E-20
  54953.082    8.2161E-20
  54953.152    7.9822E-20
  54953.219    7.9105E-20
  54953.297    7.5131E-20
  54953.363    7.1513E-20
  54953.434    6.5873E-20
  54953.500    6.2794E-20
  54953.578    6.0101E-20
  54953.645    5.7759E-20
  54953.715    5.5528E-20
  54953.781    5.3393E-20
  54953.859    5.1151E-20
  54953.926    4.8912E-20
  54953.996    4.6013E-20
  54954.063    4.3439E-20
  54954.141    4.1569E-20
  54954.207    4.0344E-20
  54954.277    3.8540E-20
  54954.344    3.7219E-20
  54954.422    3.5100E-20
  54954.488    3.2559E-20
  54954.559    2.9957E-20
  54954.625    2.7739E-20
  54954.703    2.7186E-20
  54954.770    2.7174E-20
  54954.840    2.7911E-20
  54954.906    2.7435E-20
  54954.984    2.5338E-20
  54955.047    2.4531E-20
  54955.121    2.3287E-20
  54955.188    2.2275E-20
  54955.266    2.1860E-20
  54955.328    2.1993E-20
  54955.402    2.2134E-20
  54955.469    2.1666E-20
  54955.547    2.0964E-20
  54955.609    2.0365E-20
  54955.684    1.9229E-20
  54955.750    1.7613E-20
  54955.824    1.7228E-20
  54955.891    1.7073E-20
  54955.965    1.7297E-20
  54956.031    1.7095E-20
  54956.105    1.6364E-20
  54956.172    1.5928E-20
  54956.246    1.5405E-20
  54956.313    1.5079E-20
  54956.387    1.5459E-20
  54956.453    1.5301E-20
  54956.527    1.5781E-20
  54956.594    1.6063E-20
  54956.668    1.5502E-20
  54956.734    1.5464E-20
  54956.809    1.4875E-20
  54956.875    1.5191E-20
  54956.949    1.5206E-20
  54957.016    1.5117E-20
  54957.090    1.5439E-20
  54957.156    1.5476E-20
  54957.230    1.4370E-20
  54957.297    1.4910E-20
  54957.371    1.5929E-20
  54957.438    1.6680E-20
  54957.512    1.6761E-20
  54957.578    1.7172E-20
  54957.645    1.7324E-20
  54957.719    1.6194E-20
  54957.793    1.5537E-20
  54957.859    1.5089E-20
  54957.926    1.4451E-20
  54958.000    1.4778E-20
  54958.074    1.5651E-20
  54958.141    1.6901E-20
  54958.207    1.8223E-20
  54958.281    1.8197E-20
  54958.355    1.6994E-20
  54958.422    1.4667E-20
  54958.488    1.3160E-20
  54958.563    1.2140E-20
  54958.637    1.2992E-20
  54958.703    1.4257E-20
  54958.770    1.4548E-20
  54958.844    1.4491E-20
  54958.910    1.3352E-20
  54958.984    1.2142E-20
  54959.051    1.2502E-20
  54959.125    1.3515E-20
  54959.191    1.3387E-20
  54959.266    1.3436E-20
  54959.332    1.2933E-20
  54959.402    1.3785E-20
  54959.473    1.5066E-20
  54959.547    1.5108E-20
  54959.613    1.4105E-20
  54959.684    1.2673E-20
  54959.754    1.2139E-20
  54959.828    1.2529E-20
  54959.895    1.2323E-20
  54959.965    1.2026E-20
  54960.035    1.1444E-20
  54960.109    1.0565E-20
  54960.176    1.0241E-20
  54960.246    1.0037E-20
  54960.316    9.4000E-21
  54960.391    9.8787E-21
  54960.457    9.9677E-21
  54960.527    9.8607E-21
  54960.594    9.5538E-21
  54960.672    1.0032E-20
  54960.738    9.5303E-21
  54960.809    8.0005E-21
  54960.875    6.6252E-21
  54960.953    6.0158E-21
  54961.020    6.2863E-21
  54961.090    5.9714E-21
  54961.156    6.2377E-21
  54961.234    6.0191E-21
  54961.301    4.6187E-21
  54961.371    4.0020E-21
  54961.438    4.4740E-21
  54961.516    5.4963E-21
  54961.582    6.5295E-21
  54961.652    7.8759E-21
  54961.719    8.3544E-21
  54961.797    7.8700E-21
  54961.863    7.4422E-21
  54961.934    7.1126E-21
  54962.000    7.3703E-21
  54962.078    7.7808E-21
  54962.145    8.2617E-21
  54962.215    9.0089E-21
  54962.281    8.2035E-21
  54962.359    6.4867E-21
  54962.426    4.8212E-21
  54962.496    4.6633E-21
  54962.563    5.0136E-21
  54962.641    5.5601E-21
  54962.703    6.2874E-21
  54962.777    6.7996E-21
  54962.844    7.3686E-21
  54962.922    7.3566E-21
  54962.984    7.4676E-21
  54963.059    7.1903E-21
  54963.125    7.0428E-21
  54963.203    7.5604E-21
  54963.266    8.6679E-21
  54963.340    9.5625E-21
  54963.406    9.8547E-21
  54963.484    8.9346E-21
  54963.547    7.7871E-21
  54963.621    7.0397E-21
  54963.688    6.1773E-21
  54963.762    5.6979E-21
  54963.828    5.3882E-21
  54963.902    4.8795E-21
  54963.969    4.8891E-21
  54964.043    5.2893E-21
  54964.109    5.1640E-21
  54964.184    6.0797E-21
  54964.250    7.1132E-21
  54964.324    8.0734E-21
  54964.391    8.8203E-21
  54964.465    9.2427E-21
  54964.531    8.9817E-21
  54964.605    8.0839E-21
  54964.672    6.9942E-21
  54964.746    6.7543E-21
  54964.813    6.5239E-21
  54964.887    6.4500E-21
  54964.953    7.1448E-21
  54965.027    6.9622E-21
  54965.094    6.3133E-21
  54965.168    5.5534E-21
  54965.234    4.6163E-21
  54965.309    3.9780E-21
  54965.375    3.5237E-21
  54965.449    3.9385E-21
  54965.516    4.2154E-21
  54965.590    4.1231E-21
  54965.656    3.2923E-21
  54965.730    2.5538E-21
  54965.797    1.7231E-21
  54965.871    1.4462E-21
  54965.938    2.1846E-21
  54966.012    2.4615E-21
  54966.078    2.9231E-21
  54966.145    2.5538E-21
  54966.219    2.1846E-21
  54966.293    1.2615E-21
  54966.359    7.0769E-22
  54966.426    3.3846E-22
  54966.500    9.8462E-22
  54966.574    1.2615E-21
  54966.641    9.8462E-22
  54966.707    1.4462E-21
  54966.781    2.1846E-21
  54966.855    2.9315E-21
  54966.922    3.0132E-21
  54966.988    2.3718E-21
  54967.063    1.5385E-21
  54967.137    1.8154E-21
  54967.203    2.7385E-21
  54967.270    2.2769E-21
  54967.344    1.7426E-21
  54967.418    3.2624E-21
  54967.484    2.5538E-21
  54967.551    2.1846E-21
  54967.625    1.7231E-21
  54967.691    2.1846E-21
  54967.766    2.7385E-21
  54967.832    2.5538E-21
  54967.906    2.1846E-21
  54967.973    1.8154E-21
  54968.047    1.4462E-21
  54968.113    1.7231E-21
  54968.188    2.4615E-21
  54968.254    2.9231E-21
  54968.328    2.1846E-21
  54968.395    8.0000E-22
  54968.465    3.3846E-22
  54968.535    7.0769E-22
  54968.609    6.1539E-23
  54968.676   -2.1538E-22
  54968.746    5.2308E-22
  54968.816    9.8462E-22
  54968.891    8.0000E-22
  54968.957    1.5385E-21
  54969.027    1.8154E-21
  54969.098    1.4462E-21
  54969.172    9.8462E-22
  54969.238    3.3846E-22
  54969.309    2.4615E-22
  54969.379    7.0769E-22
  54969.453    1.4462E-21
  54969.520    1.8154E-21
  54969.590    2.4615E-21
  54969.660    2.1846E-21
  54969.734    1.2615E-21
  54969.801    5.2308E-22
  54969.871    2.4615E-22
  54969.941    3.3846E-22
  54970.016    8.0000E-22
  54970.082    1.7231E-21
  54970.152    1.5385E-21
  54970.219    2.2769E-21
  54970.297    2.5538E-21
  54970.363    2.4615E-21
  54970.434    2.3136E-21
  54970.500    1.4858E-21
  54970.578    6.8855E-22
  54970.645    7.7963E-22
  54970.715    1.2652E-21
  54970.781    1.4551E-21
  54970.859    2.1833E-21
  54970.926    2.5146E-21
  54970.996    3.0107E-21
  54971.063    3.3554E-21
  54971.141    3.7883E-21
  54971.207    4.0292E-21
  54971.277    3.2957E-21
  54971.344    2.6439E-21
  54971.422    2.2709E-21
  54971.488    2.0553E-21
  54971.559    2.1255E-21
  54971.625    1.7453E-21
  54971.703    1.6584E-21
  54971.770    2.0870E-21
  54971.840    3.4985E-21
  54971.906    4.8343E-21
  54971.984    5.1679E-21
  54972.051    4.7286E-21
  54972.121    4.1963E-21
  54972.188    3.5955E-21
  54972.266    2.8381E-21
  54972.332    1.8082E-21
  54972.402    1.7534E-21
  54972.469    2.2274E-21
  54972.547    2.0695E-21
  54972.613    1.6599E-21
  54972.684    1.3292E-21
  54972.750    1.1666E-21
  54972.828    1.3586E-21
  54972.895    1.9243E-21
  54972.965    2.7515E-21
  54973.031    3.4733E-21
  54973.109    3.9528E-21
  54973.172    4.3318E-21
  54973.246    4.2629E-21
  54973.313    3.5360E-21
  54973.391    3.0701E-21
  54973.453    2.7051E-21
  54973.527    2.9783E-21
  54973.594    3.4215E-21
  54973.672    3.4260E-21
  54973.734    3.6245E-21
  54973.809    4.2068E-21
  54973.875    5.0583E-21
  54973.953    5.5304E-21
  54974.016    6.1951E-21
  54974.090    6.3090E-21
  54974.156    6.5973E-21
  54974.234    6.8718E-21
  54974.297    6.6943E-21
  54974.371    6.8053E-21
  54974.438    6.7364E-21
  54974.516    6.5867E-21
  54974.578    6.5337E-21
  54974.652    6.5587E-21
  54974.719    7.1160E-21
  54974.793    6.8393E-21
  54974.859    6.5438E-21
  54974.934    6.3578E-21
  54975.000    5.5627E-21
  54975.074    4.9621E-21
  54975.141    4.2601E-21
  54975.215    3.8403E-21
  54975.281    3.0615E-21
  54975.355    2.2723E-21
  54975.422    1.6416E-21
  54975.496    1.4580E-21
  54975.563    1.2764E-21
  54975.637    1.1890E-21
  54975.703    1.2836E-21
  54975.777    1.2909E-21
  54975.844    2.2687E-21
  54975.918    2.9799E-21
  54975.984    2.8028E-21
  54976.059    2.8945E-21
  54976.125    2.8046E-21
  54976.199    2.6185E-21
  54976.266    2.3324E-21
  54976.340    2.5725E-21
  54976.406    2.5659E-21
  54976.480    2.7393E-21
  54976.547    3.1971E-21
  54976.621    2.9482E-21
  54976.688    3.2083E-21
  54976.762    4.6357E-21
  54976.828    5.1704E-21
  54976.902    5.7869E-21
  54976.969    6.3244E-21
  54977.043    5.7655E-21
  54977.109    5.1061E-21
  54977.184    5.0886E-21
  54977.250    5.5208E-21
  54977.324    5.3112E-21
  54977.391    4.8408E-21
  54977.465    4.9142E-21
  54977.531    5.3708E-21
  54977.605    5.9376E-21
  54977.672    6.0292E-21
  54977.746    5.9233E-21
  54977.813    5.5495E-21
  54977.887    5.1750E-21
  54977.953    4.3538E-21
  54978.027    3.8098E-21
  54978.094    3.0002E-21
  54978.168    3.0009E-21
  54978.234    2.5691E-21
  54978.309    2.3100E-21
  54978.375    2.5657E-21
  54978.449    2.4769E-21
  54978.516    2.0341E-21
  54978.590    3.0306E-21
  54978.656    3.6752E-21
  54978.730    3.6774E-21
  54978.797    3.5881E-21
  54978.871    2.6925E-21
  54978.938    1.9760E-21
  54979.012    1.9866E-21
  54979.078    2.0851E-21
  54979.145    2.2652E-21
  54979.219    2.9674E-21
  54979.293    3.4763E-21
  54979.359    3.6238E-21
  54979.426    3.4280E-21
  54979.500    3.4235E-21
  54979.574    2.6030E-21
  54979.641    1.6985E-21
  54979.707    1.8705E-21
  54979.781    2.9454E-21
  54979.855    4.1207E-21
  54979.922    4.9363E-21
  54979.988    4.6641E-21
