# 16O2;(12,0);79K;55537-856 cm-1;4426 pts
  55537.118    0.1099E-20
  55537.190    0.1037E-20
  55537.262    0.9521E-21
  55537.333    0.8738E-21
  55537.405    0.8140E-21
  55537.477    0.8139E-21
  55537.549    0.8197E-21
  55537.620    0.8374E-21
  55537.692    0.8373E-21
  55537.764    0.7897E-21
  55537.836    0.7248E-21
  55537.907    0.6084E-21
  55537.979    0.5053E-21
  55538.051    0.4374E-21
  55538.123    0.3980E-21
  55538.194    0.4034E-21
  55538.266    0.4145E-21
  55538.338    0.3641E-21
  55538.410    0.3029E-21
  55538.482    0.2863E-21
  55538.553    0.2861E-21
  55538.625    0.2530E-21
  55538.697    0.2420E-21
  55538.769    0.2418E-21
  55538.840    0.2253E-21
  55538.912    0.2034E-21
  55538.984    0.2305E-21
  55539.056    0.2742E-21
  55539.127    0.2631E-21
  55539.199    0.2520E-21
  55539.271    0.2300E-21
  55539.343    0.2080E-21
  55539.415    0.2681E-21
  55539.486    0.3397E-21
  55539.558    0.3674E-21
  55539.630    0.3450E-21
  55539.702    0.3061E-21
  55539.773    0.3060E-21
  55539.845    0.3391E-21
  55539.917    0.3278E-21
  55539.989    0.3166E-21
  55540.060    0.2669E-21
  55540.132    0.2284E-21
  55540.204    0.2501E-21
  55540.276    0.2610E-21
  55540.348    0.2828E-21
  55540.419    0.2882E-21
  55540.491    0.2661E-21
  55540.563    0.2385E-21
  55540.635    0.2329E-21
  55540.706    0.2055E-21
  55540.778    0.2054E-21
  55540.850    0.2216E-21
  55540.922    0.2051E-21
  55540.994    0.2159E-21
  55541.065    0.2212E-21
  55541.137    0.2211E-21
  55541.209    0.1774E-21
  55541.281    0.1394E-21
  55541.352    0.1284E-21
  55541.424    0.1553E-21
  55541.496    0.1931E-21
  55541.568    0.2641E-21
  55541.639    0.3136E-21
  55541.711    0.3190E-21
  55541.783    0.2857E-21
  55541.855    0.2581E-21
  55541.927    0.2634E-21
  55541.998    0.2853E-21
  55542.070    0.3183E-21
  55542.142    0.2906E-21
  55542.214    0.2684E-21
  55542.285    0.2628E-21
  55542.357    0.2243E-21
  55542.429    0.1697E-21
  55542.501    0.1263E-21
  55542.573    0.7250E-22
  55542.644    0.2971E-22
  55542.716    0.3045E-23
  55542.788    0.8211E-23
  55542.860    0.3995E-22
  55542.931    0.9863E-22
  55543.003    0.1686E-21
  55543.075    0.2229E-21
  55543.147    0.2447E-21
  55543.219    0.2336E-21
  55543.290    0.2171E-21
  55543.362    0.1951E-21
  55543.434    0.1841E-21
  55543.506    0.1731E-21
  55543.578    0.1243E-21
  55543.649    0.9731E-22
  55543.721    0.1187E-21
  55543.793    0.1347E-21
  55543.865    0.1671E-21
  55543.936    0.1941E-21
  55544.008    0.1722E-21
  55544.080    0.1342E-21
  55544.152    0.1503E-21
  55544.224    0.1610E-21
  55544.295    0.1608E-21
  55544.367    0.1879E-21
  55544.439    0.2259E-21
  55544.511    0.2477E-21
  55544.582    0.1983E-21
  55544.654    0.1710E-21
  55544.726    0.1872E-21
  55544.798    0.2034E-21
  55544.870    0.2690E-21
  55544.941    0.3241E-21
  55545.013    0.2742E-21
  55545.085    0.2192E-21
  55545.157    0.2300E-21
  55545.229    0.2244E-21
  55545.300    0.2025E-21
  55545.372    0.1480E-21
  55545.444    0.7791E-22
  55545.516    0.1379E-22
  55545.587   -0.1284E-22
  55545.659   -0.1826E-22
  55545.731    0.1339E-22
  55545.803    0.6654E-22
  55545.875    0.9858E-22
  55545.946    0.1308E-21
  55546.018    0.1522E-21
  55546.090    0.1251E-21
  55546.162    0.1466E-21
  55546.234    0.1844E-21
  55546.305    0.2006E-21
  55546.377    0.2005E-21
  55546.449    0.1460E-21
  55546.521    0.9738E-22
  55546.592    0.8115E-22
  55546.664    0.8102E-22
  55546.736    0.9699E-22
  55546.808    0.1130E-21
  55546.880    0.1344E-21
  55546.951    0.1181E-21
  55547.023    0.1072E-21
  55547.095    0.1017E-21
  55547.167    0.1339E-21
  55547.239    0.1663E-21
  55547.310    0.1661E-21
  55547.382    0.1877E-21
  55547.454    0.2094E-21
  55547.526    0.2476E-21
  55547.598    0.2475E-21
  55547.669    0.2418E-21
  55547.741    0.2253E-21
  55547.813    0.1652E-21
  55547.885    0.1380E-21
  55547.957    0.1595E-21
  55548.028    0.1865E-21
  55548.100    0.2082E-21
  55548.172    0.2245E-21
  55548.244    0.2738E-21
  55548.316    0.3290E-21
  55548.387    0.3678E-21
  55548.459    0.3621E-21
  55548.531    0.3788E-21
  55548.603    0.4067E-21
  55548.674    0.4121E-21
  55548.746    0.3952E-21
  55548.818    0.4063E-21
  55548.890    0.3725E-21
  55548.962    0.3222E-21
  55549.033    0.2944E-21
  55549.105    0.2502E-21
  55549.177    0.2062E-21
  55549.249    0.2116E-21
  55549.321    0.2388E-21
  55549.392    0.2827E-21
  55549.464    0.3269E-21
  55549.536    0.3378E-21
  55549.608    0.3600E-21
  55549.680    0.3878E-21
  55549.751    0.3821E-21
  55549.823    0.3485E-21
  55549.895    0.3539E-21
  55549.967    0.3929E-21
  55550.039    0.3536E-21
  55550.110    0.3146E-21
  55550.182    0.3311E-21
  55550.254    0.3365E-21
  55550.326    0.2920E-21
  55550.398    0.2368E-21
  55550.469    0.2038E-21
  55550.541    0.1765E-21
  55550.613    0.1655E-21
  55550.685    0.1816E-21
  55550.757    0.2307E-21
  55550.828    0.2966E-21
  55550.900    0.3076E-21
  55550.972    0.3074E-21
  55551.044    0.2852E-21
  55551.116    0.2850E-21
  55551.187    0.2518E-21
  55551.259    0.2243E-21
  55551.331    0.2296E-21
  55551.403    0.1967E-21
  55551.475    0.2293E-21
  55551.547    0.2677E-21
  55551.618    0.3007E-21
  55551.690    0.3006E-21
  55551.762    0.2673E-21
  55551.834    0.2013E-21
  55551.906    0.1468E-21
  55551.977    0.1521E-21
  55552.049    0.1574E-21
  55552.121    0.1735E-21
  55552.193    0.1680E-21
  55552.265    0.1896E-21
  55552.336    0.1895E-21
  55552.408    0.1948E-21
  55552.480    0.2056E-21
  55552.552    0.2273E-21
  55552.624    0.2602E-21
  55552.695    0.2766E-21
  55552.767    0.3152E-21
  55552.839    0.3820E-21
  55552.911    0.4099E-21
  55552.983    0.4606E-21
  55553.054    0.4662E-21
  55553.126    0.4208E-21
  55553.198    0.3590E-21
  55553.270    0.2976E-21
  55553.342    0.2424E-21
  55553.413    0.2258E-21
  55553.485    0.2586E-21
  55553.557    0.3193E-21
  55553.629    0.3861E-21
  55553.701    0.4423E-21
  55553.773    0.4819E-21
  55553.844    0.4988E-21
  55553.916    0.4987E-21
  55553.988    0.5328E-21
  55554.060    0.5786E-21
  55554.132    0.6422E-21
  55554.203    0.6946E-21
  55554.275    0.6886E-21
  55554.347    0.6709E-21
  55554.419    0.6242E-21
  55554.491    0.6009E-21
  55554.562    0.6240E-21
  55554.634    0.6880E-21
  55554.706    0.7525E-21
  55554.778    0.8177E-21
  55554.850    0.9257E-21
  55554.922    0.1017E-20
  55554.993    0.1054E-20
  55555.065    0.1178E-20
  55555.137    0.1311E-20
  55555.209    0.1473E-20
  55555.281    0.1658E-20
  55555.352    0.1904E-20
  55555.424    0.2188E-20
  55555.496    0.2514E-20
  55555.568    0.2880E-20
  55555.640    0.3299E-20
  55555.712    0.3855E-20
  55555.783    0.4518E-20
  55555.855    0.5574E-20
  55555.927    0.6301E-20
  55555.999    0.6898E-20
  55556.071    0.7461E-20
  55556.142    0.7914E-20
  55556.214    0.8143E-20
  55556.286    0.8187E-20
  55556.358    0.7984E-20
  55556.430    0.7591E-20
  55556.502    0.7171E-20
  55556.573    0.6854E-20
  55556.645    0.6583E-20
  55556.717    0.6383E-20
  55556.789    0.6251E-20
  55556.861    0.6167E-20
  55556.932    0.6269E-20
  55557.004    0.6571E-20
  55557.076    0.7058E-20
  55557.148    0.7532E-20
  55557.220    0.7995E-20
  55557.292    0.8391E-20
  55557.363    0.8616E-20
  55557.435    0.8762E-20
  55557.507    0.8888E-20
  55557.579    0.8967E-20
  55557.651    0.8982E-20
  55557.722    0.9014E-20
  55557.794    0.8953E-20
  55557.866    0.8778E-20
  55557.938    0.8383E-20
  55558.010    0.7898E-20
  55558.082    0.7269E-20
  55558.153    0.6727E-20
  55558.225    0.6212E-20
  55558.297    0.5684E-20
  55558.369    0.5120E-20
  55558.441    0.4363E-20
  55558.513    0.3988E-20
  55558.584    0.3579E-20
  55558.656    0.3193E-20
  55558.728    0.2914E-20
  55558.800    0.2615E-20
  55558.872    0.2343E-20
  55558.943    0.2074E-20
  55559.015    0.1753E-20
  55559.087    0.1498E-20
  55559.159    0.1336E-20
  55559.231    0.1240E-20
  55559.303    0.1195E-20
  55559.374    0.1133E-20
  55559.446    0.1083E-20
  55559.518    0.1002E-20
  55559.590    0.9048E-21
  55559.662    0.7908E-21
  55559.734    0.7137E-21
  55559.805    0.6960E-21
  55559.877    0.7076E-21
  55559.949    0.7192E-21
  55560.021    0.7545E-21
  55560.093    0.7722E-21
  55560.165    0.7071E-21
  55560.236    0.6309E-21
  55560.308    0.5498E-21
  55560.380    0.4981E-21
  55560.452    0.4695E-21
  55560.524    0.4637E-21
  55560.596    0.4692E-21
  55560.667    0.4691E-21
  55560.739    0.4690E-21
  55560.811    0.4405E-21
  55560.883    0.4177E-21
  55560.955    0.3894E-21
  55561.027    0.3669E-21
  55561.098    0.3723E-21
  55561.170    0.3442E-21
  55561.242    0.3385E-21
  55561.314    0.3719E-21
  55561.386    0.4055E-21
  55561.458    0.3885E-21
  55561.529    0.3659E-21
  55561.601    0.3378E-21
  55561.673    0.2821E-21
  55561.745    0.2764E-21
  55561.817    0.2652E-21
  55561.889    0.2651E-21
  55561.960    0.3093E-21
  55562.032    0.3259E-21
  55562.104    0.3202E-21
  55562.176    0.3256E-21
  55562.248    0.3702E-21
  55562.320    0.3982E-21
  55562.391    0.4206E-21
  55562.463    0.4431E-21
  55562.535    0.3753E-21
  55562.607    0.2859E-21
  55562.679    0.2086E-21
  55562.751    0.1921E-21
  55562.822    0.2083E-21
  55562.894    0.2137E-21
  55562.966    0.2466E-21
  55563.038    0.2851E-21
  55563.110    0.2628E-21
  55563.182    0.2187E-21
  55563.253    0.1857E-21
  55563.325    0.1583E-21
  55563.397    0.1418E-21
  55563.469    0.1146E-21
  55563.541    0.1470E-21
  55563.613    0.1795E-21
  55563.684    0.1794E-21
  55563.756    0.1683E-21
  55563.828    0.1682E-21
  55563.900    0.1790E-21
  55563.972    0.2117E-21
  55564.044    0.2446E-21
  55564.115    0.2665E-21
  55564.187    0.2885E-21
  55564.259    0.2828E-21
  55564.331    0.2716E-21
  55564.403    0.2549E-21
  55564.475    0.2327E-21
  55564.547    0.1942E-21
  55564.618    0.1886E-21
  55564.690    0.1721E-21
  55564.762    0.1883E-21
  55564.834    0.2376E-21
  55564.906    0.2872E-21
  55564.978    0.3037E-21
  55565.049    0.2593E-21
  55565.121    0.1877E-21
  55565.193    0.1439E-21
  55565.265    0.1765E-21
  55565.337    0.2312E-21
  55565.409    0.2752E-21
  55565.481    0.3139E-21
  55565.552    0.3361E-21
  55565.624    0.2914E-21
  55565.696    0.1975E-21
  55565.768    0.1211E-21
  55565.840    0.9937E-22
  55565.912    0.8305E-22
  55565.983    0.5065E-22
  55566.055    0.6126E-22
  55566.127    0.6650E-22
  55566.199    0.7174E-22
  55566.271    0.1365E-21
  55566.343    0.1527E-21
  55566.415    0.1853E-21
  55566.486    0.2621E-21
  55566.558    0.2675E-21
  55566.630    0.2288E-21
  55566.702    0.2066E-21
  55566.774    0.1519E-21
  55566.846    0.9210E-22
  55566.917    0.4892E-22
  55566.989    0.3271E-22
  55567.061   -0.4794E-23
  55567.133    0.5730E-23
  55567.205    0.7526E-22
  55567.277    0.9130E-22
  55567.349    0.6961E-22
  55567.420    0.1053E-22
  55567.492   -0.2686E-22
  55567.564    0.4931E-23
  55567.636    0.8524E-22
  55567.708    0.1556E-21
  55567.780    0.1937E-21
  55567.852    0.1881E-21
  55567.923    0.1443E-21
  55567.995    0.1116E-21
  55568.067    0.8984E-22
  55568.139    0.1005E-21
  55568.211    0.1546E-21
  55568.283    0.2147E-21
  55568.354    0.2311E-21
  55568.426    0.2364E-21
  55568.498    0.2088E-21
  55568.570    0.2032E-21
  55568.642    0.1976E-21
  55568.714    0.1865E-21
  55568.786    0.2248E-21
  55568.857    0.2633E-21
  55568.929    0.3410E-21
  55569.001    0.4196E-21
  55569.073    0.4706E-21
  55569.145    0.4990E-21
  55569.217    0.4817E-21
  55569.289    0.4645E-21
  55569.360    0.4416E-21
  55569.432    0.4132E-21
  55569.504    0.4187E-21
  55569.576    0.4640E-21
  55569.648    0.5440E-21
  55569.720    0.6017E-21
  55569.792    0.6132E-21
  55569.863    0.6073E-21
  55569.935    0.6188E-21
  55570.007    0.6070E-21
  55570.079    0.5894E-21
  55570.151    0.6009E-21
  55570.223    0.5718E-21
  55570.295    0.4855E-21
  55570.366    0.4058E-21
  55570.438    0.3719E-21
  55570.510    0.4055E-21
  55570.582    0.4621E-21
  55570.654    0.4336E-21
  55570.726    0.4051E-21
  55570.798    0.3712E-21
  55570.869    0.3262E-21
  55570.941    0.3094E-21
  55571.013    0.3037E-21
  55571.085    0.3147E-21
  55571.157    0.3313E-21
  55571.229    0.3033E-21
  55571.301    0.2643E-21
  55571.372    0.2255E-21
  55571.444    0.1924E-21
  55571.516    0.1268E-21
  55571.588    0.9952E-22
  55571.660    0.1156E-21
  55571.732    0.1809E-21
  55571.804    0.2633E-21
  55571.876    0.2577E-21
  55571.947    0.1969E-21
  55572.019    0.1694E-21
  55572.091    0.1529E-21
  55572.163    0.1147E-21
  55572.235    0.1146E-21
  55572.307    0.1416E-21
  55572.379    0.1469E-21
  55572.450    0.1413E-21
  55572.522    0.9238E-22
  55572.594    0.4913E-22
  55572.666    0.8131E-22
  55572.738    0.1517E-21
  55572.810    0.1953E-21
  55572.882    0.1897E-21
  55572.954    0.1513E-21
  55573.025    0.8604E-22
  55573.097   -0.5334E-23
  55573.169   -0.2145E-22
  55573.241    0.5072E-23
  55573.313   -0.4002E-24
  55573.385    0.1015E-22
  55573.457    0.2071E-22
  55573.528    0.2058E-22
  55573.600    0.4189E-22
  55573.672    0.7944E-22
  55573.744    0.1009E-21
  55573.816    0.9538E-22
  55573.888    0.7904E-22
  55573.960    0.4122E-22
  55574.032   -0.3899E-22
  55574.103   -0.5503E-22
  55574.175    0.8680E-23
  55574.247    0.9458E-22
  55574.319    0.1651E-21
  55574.391    0.1650E-21
  55574.463    0.1922E-21
  55574.535    0.1866E-21
  55574.606    0.1865E-21
  55574.678    0.1754E-21
  55574.750    0.1480E-21
  55574.822    0.1261E-21
  55574.894    0.8797E-22
  55574.966    0.8784E-22
  55575.038    0.1311E-21
  55575.110    0.2020E-21
  55575.181    0.2460E-21
  55575.253    0.2569E-21
  55575.325    0.2457E-21
  55575.397    0.2677E-21
  55575.469    0.3289E-21
  55575.541    0.3176E-21
  55575.613    0.3007E-21
  55575.685    0.2506E-21
  55575.756    0.1734E-21
  55575.828    0.1242E-21
  55575.900    0.1349E-21
  55575.972    0.1511E-21
  55576.044    0.1948E-21
  55576.116    0.2609E-21
  55576.188    0.3275E-21
  55576.260    0.3386E-21
  55576.331    0.2994E-21
  55576.403    0.2992E-21
  55576.475    0.2768E-21
  55576.547    0.2711E-21
  55576.619    0.2655E-21
  55576.691    0.2542E-21
  55576.763    0.2375E-21
  55576.835    0.1824E-21
  55576.906    0.1440E-21
  55576.978    0.1438E-21
  55577.050    0.1546E-21
  55577.122    0.2148E-21
  55577.194    0.1872E-21
  55577.266    0.1161E-21
  55577.338    0.9425E-22
  55577.410    0.7250E-22
  55577.482    0.1211E-21
  55577.553    0.1646E-21
  55577.625    0.1535E-21
  55577.697    0.7196E-22
  55577.769    0.3414E-22
  55577.841    0.5014E-22
  55577.913    0.7156E-22
  55577.985    0.9305E-22
  55578.057    0.6590E-22
  55578.128    0.6037E-22
  55578.200    0.6024E-22
  55578.272    0.4933E-22
  55578.344    0.1699E-22
  55578.416    0.4907E-22
  55578.488    0.8670E-22
  55578.560    0.1191E-21
  55578.632    0.1407E-21
  55578.704    0.1515E-21
  55578.775    0.1787E-21
  55578.847    0.1951E-21
  55578.919    0.2004E-21
  55578.991    0.2058E-21
  55579.063    0.2057E-21
  55579.135    0.2166E-21
  55579.207    0.2219E-21
  55579.279    0.1669E-21
  55579.350    0.1503E-21
  55579.422    0.1557E-21
  55579.494    0.1391E-21
  55579.566    0.1445E-21
  55579.638    0.1771E-21
  55579.710    0.2045E-21
  55579.782    0.2374E-21
  55579.854    0.2152E-21
  55579.926    0.1493E-21
  55579.997    0.1219E-21
  55580.069    0.1490E-21
  55580.141    0.1707E-21
  55580.213    0.1980E-21
  55580.285    0.1869E-21
  55580.357    0.2308E-21
  55580.429    0.2362E-21
  55580.501    0.2195E-21
  55580.573    0.1864E-21
  55580.644    0.1098E-21
  55580.716    0.5556E-22
  55580.788    0.5543E-22
  55580.860    0.9312E-22
  55580.932    0.1474E-21
  55581.004    0.1911E-21
  55581.076    0.2185E-21
  55581.148    0.1853E-21
  55581.220    0.1687E-21
  55581.291    0.1631E-21
  55581.363    0.1575E-21
  55581.435    0.1192E-21
  55581.507    0.4332E-22
  55581.579    0.3243E-22
  55581.651    0.8082E-22
  55581.723    0.1241E-21
  55581.795    0.1567E-21
  55581.867    0.1620E-21
  55581.938    0.9654E-22
  55582.010    0.7475E-22
  55582.082    0.1017E-21
  55582.154    0.1451E-21
  55582.226    0.2108E-21
  55582.298    0.2549E-21
  55582.370    0.2437E-21
  55582.442    0.2491E-21
  55582.514    0.2324E-21
  55582.586    0.1771E-21
  55582.657    0.1061E-21
  55582.729    0.7882E-22
  55582.801    0.8410E-22
  55582.873    0.5155E-22
  55582.945    0.5142E-22
  55583.017    0.9453E-22
  55583.089    0.1270E-21
  55583.161    0.1378E-21
  55583.233    0.1540E-21
  55583.304    0.1539E-21
  55583.376    0.1374E-21
  55583.448    0.1646E-21
  55583.520    0.1809E-21
  55583.592    0.2303E-21
  55583.664    0.2801E-21
  55583.736    0.2522E-21
  55583.808    0.2410E-21
  55583.880    0.2797E-21
  55583.952    0.2963E-21
  55584.023    0.2795E-21
  55584.095    0.2571E-21
  55584.167    0.2792E-21
  55584.239    0.2680E-21
  55584.311    0.2734E-21
  55584.383    0.2788E-21
  55584.455    0.2343E-21
  55584.527    0.1681E-21
  55584.599    0.6453E-22
  55584.671    0.1058E-22
  55584.742   -0.1096E-22
  55584.814    0.1031E-22
  55584.886    0.1237E-21
  55584.958    0.2278E-21
  55585.030    0.2720E-21
  55585.102    0.2497E-21
  55585.174    0.2108E-21
  55585.246    0.1394E-21
  55585.318    0.9567E-22
  55585.390    0.9554E-22
  55585.461    0.8998E-22
  55585.533    0.5739E-22
  55585.605    0.4647E-22
  55585.677    0.5172E-22
  55585.749    0.5699E-22
  55585.821    0.1056E-21
  55585.893    0.1272E-21
  55585.965    0.1435E-21
  55586.037    0.1652E-21
  55586.109    0.2036E-21
  55586.181    0.2255E-21
  55586.252    0.1758E-21
  55586.324    0.1210E-21
  55586.396    0.1209E-21
  55586.468    0.1371E-21
  55586.540    0.1643E-21
  55586.612    0.2082E-21
  55586.684    0.2578E-21
  55586.756    0.2466E-21
  55586.828    0.2520E-21
  55586.900    0.2519E-21
  55586.971    0.2185E-21
  55587.043    0.2239E-21
  55587.115    0.2570E-21
  55587.187    0.3407E-21
  55587.259    0.4084E-21
  55587.331    0.4253E-21
  55587.403    0.4365E-21
  55587.475    0.4023E-21
  55587.547    0.3232E-21
  55587.619    0.2895E-21
  55587.691    0.2727E-21
  55587.762    0.3116E-21
  55587.834    0.4130E-21
  55587.906    0.5101E-21
  55587.978    0.6085E-21
  55588.050    0.7321E-21
  55588.122    0.8338E-21
  55588.194    0.8942E-21
  55588.266    0.9062E-21
  55588.338    0.9427E-21
  55588.410    0.9671E-21
  55588.482    0.1004E-20
  55588.553    0.1091E-20
  55588.625    0.1173E-20
  55588.697    0.1191E-20
  55588.769    0.1185E-20
  55588.841    0.1204E-20
  55588.913    0.1280E-20
  55588.985    0.1416E-20
  55589.057    0.1595E-20
  55589.129    0.1724E-20
  55589.201    0.1814E-20
  55589.273    0.1834E-20
  55589.345    0.1883E-20
  55589.416    0.2003E-20
  55589.488    0.2176E-20
  55589.560    0.2360E-20
  55589.632    0.2565E-20
  55589.704    0.2784E-20
  55589.776    0.3093E-20
  55589.848    0.3477E-20
  55589.920    0.3958E-20
  55589.992    0.4566E-20
  55590.064    0.5368E-20
  55590.136    0.6077E-20
  55590.208    0.6706E-20
  55590.279    0.7199E-20
  55590.351    0.7684E-20
  55590.423    0.7936E-20
  55590.495    0.7954E-20
  55590.567    0.7681E-20
  55590.639    0.7260E-20
  55590.711    0.6813E-20
  55590.783    0.6366E-20
  55590.855    0.5977E-20
  55590.927    0.5624E-20
  55590.999    0.5402E-20
  55591.071    0.5271E-20
  55591.142    0.5259E-20
  55591.214    0.5318E-20
  55591.286    0.5421E-20
  55591.358    0.5692E-20
  55591.430    0.6072E-20
  55591.502    0.6520E-20
  55591.574    0.7063E-20
  55591.646    0.7527E-20
  55591.718    0.7928E-20
  55591.790    0.8193E-20
  55591.862    0.8261E-20
  55591.934    0.8271E-20
  55592.006    0.8264E-20
  55592.077    0.8220E-20
  55592.149    0.8072E-20
  55592.221    0.7943E-20
  55592.293    0.7825E-20
  55592.365    0.7663E-20
  55592.437    0.7479E-20
  55592.509    0.7265E-20
  55592.581    0.7022E-20
  55592.653    0.6747E-20
  55592.725    0.6378E-20
  55592.797    0.5943E-20
  55592.869    0.5457E-20
  55592.941    0.4695E-20
  55593.012    0.4279E-20
  55593.084    0.3868E-20
  55593.156    0.3471E-20
  55593.228    0.3145E-20
  55593.300    0.2810E-20
  55593.372    0.2528E-20
  55593.444    0.2301E-20
  55593.516    0.2124E-20
  55593.588    0.1959E-20
  55593.660    0.1840E-20
  55593.732    0.1757E-20
  55593.804    0.1634E-20
  55593.876    0.1480E-20
  55593.947    0.1401E-20
  55594.019    0.1297E-20
  55594.091    0.1200E-20
  55594.163    0.1181E-20
  55594.235    0.1105E-20
  55594.307    0.1012E-20
  55594.379    0.9745E-21
  55594.451    0.9559E-21
  55594.523    0.9129E-21
  55594.595    0.8277E-21
  55594.667    0.7615E-21
  55594.739    0.7494E-21
  55594.811    0.7612E-21
  55594.883    0.7911E-21
  55594.954    0.8150E-21
  55595.026    0.8632E-21
  55595.098    0.8752E-21
  55595.170    0.8387E-21
  55595.242    0.7784E-21
  55595.314    0.6653E-21
  55595.386    0.5831E-21
  55595.458    0.5596E-21
  55595.530    0.5421E-21
  55595.602    0.4842E-21
  55595.674    0.4669E-21
  55595.746    0.4610E-21
  55595.818    0.4209E-21
  55595.890    0.3923E-21
  55595.962    0.3808E-21
  55596.033    0.3750E-21
  55596.105    0.3976E-21
  55596.177    0.3861E-21
  55596.249    0.3520E-21
  55596.321    0.3181E-21
  55596.393    0.3011E-21
  55596.465    0.2954E-21
  55596.537    0.3121E-21
  55596.609    0.3175E-21
  55596.681    0.3512E-21
  55596.753    0.3680E-21
  55596.825    0.3792E-21
  55596.897    0.4131E-21
  55596.969    0.3620E-21
  55597.041    0.2999E-21
  55597.113    0.2886E-21
  55597.184    0.3109E-21
  55597.256    0.3107E-21
  55597.328    0.2882E-21
  55597.400    0.2657E-21
  55597.472    0.2433E-21
  55597.544    0.2376E-21
  55597.616    0.2097E-21
  55597.688    0.1710E-21
  55597.760    0.2039E-21
  55597.832    0.2260E-21
  55597.904    0.1926E-21
  55597.976    0.1375E-21
  55598.048    0.1155E-21
  55598.120    0.1154E-21
  55598.192    0.1262E-21
  55598.264    0.1589E-21
  55598.335    0.1753E-21
  55598.407    0.2027E-21
  55598.479    0.1916E-21
  55598.551    0.1969E-21
  55598.623    0.2245E-21
  55598.695    0.2577E-21
  55598.767    0.2855E-21
  55598.839    0.3134E-21
  55598.911    0.3301E-21
  55598.983    0.3244E-21
  55599.055    0.3750E-21
  55599.127    0.4776E-21
  55599.199    0.4890E-21
  55599.271    0.4946E-21
  55599.343    0.4600E-21
  55599.415    0.4028E-21
  55599.487    0.3290E-21
  55599.558    0.2283E-21
  55599.630    0.1509E-21
  55599.702    0.1124E-21
  55599.774    0.1232E-21
  55599.846    0.1725E-21
  55599.918    0.1833E-21
  55599.990    0.1998E-21
  55600.062    0.2052E-21
  55600.134    0.2106E-21
  55600.206    0.2215E-21
  55600.278    0.2214E-21
  55600.350    0.2102E-21
  55600.422    0.1824E-21
  55600.494    0.8368E-22
  55600.566    0.2936E-22
  55600.638    0.2383E-22
  55600.710    0.4530E-22
  55600.782    0.8314E-22
  55600.854    0.9934E-22
  55600.925    0.1156E-21
  55600.997    0.9907E-22
  55601.069    0.8260E-22
  55601.141    0.6074E-22
  55601.213    0.1260E-21
  55601.285    0.2084E-21
  55601.357    0.2194E-21
  55601.429    0.1860E-21
  55601.501    0.1419E-21
  55601.573    0.8710E-22
  55601.645    0.7066E-22
  55601.717    0.1032E-21
  55601.789    0.1194E-21
  55601.861    0.1193E-21
  55601.933    0.1246E-21
  55602.005    0.1190E-21
  55602.077    0.1408E-21
  55602.149    0.1792E-21
  55602.221    0.2289E-21
  55602.293    0.2733E-21
  55602.364    0.2844E-21
  55602.436    0.2730E-21
  55602.508    0.2506E-21
  55602.580    0.2616E-21
  55602.652    0.2670E-21
  55602.724    0.2558E-21
  55602.796    0.2780E-21
  55602.868    0.3227E-21
  55602.940    0.3282E-21
  55603.012    0.2441E-21
  55603.084    0.1664E-21
  55603.156    0.1718E-21
  55603.228    0.2159E-21
  55603.300    0.2324E-21
  55603.372    0.2323E-21
  55603.444    0.2488E-21
  55603.516    0.2710E-21
  55603.588    0.3045E-21
  55603.660    0.3325E-21
  55603.732    0.3380E-21
  55603.804    0.3435E-21
  55603.876    0.3321E-21
  55603.947    0.3546E-21
  55604.019    0.3998E-21
  55604.091    0.3997E-21
  55604.163    0.3825E-21
  55604.235    0.3258E-21
  55604.307    0.3313E-21
  55604.379    0.3651E-21
  55604.451    0.3423E-21
  55604.523    0.3535E-21
  55604.595    0.3760E-21
  55604.667    0.3986E-21
  55604.739    0.4614E-21
  55604.811    0.4901E-21
  55604.883    0.4957E-21
  55604.955    0.4840E-21
  55605.027    0.4494E-21
  55605.099    0.4722E-21
  55605.171    0.5125E-21
  55605.243    0.6114E-21
  55605.315    0.7237E-21
  55605.387    0.8378E-21
  55605.459    0.9538E-21
  55605.531    0.1065E-20
  55605.603    0.1198E-20
  55605.674    0.1327E-20
  55605.746    0.1458E-20
  55605.818    0.1517E-20
  55605.890    0.1471E-20
  55605.962    0.1404E-20
  55606.034    0.1365E-20
  55606.106    0.1358E-20
  55606.178    0.1391E-20
  55606.250    0.1443E-20
  55606.322    0.1523E-20
  55606.394    0.1637E-20
  55606.466    0.1761E-20
  55606.538    0.1893E-20
  55606.610    0.2021E-20
  55606.682    0.2093E-20
  55606.754    0.2107E-20
  55606.826    0.2092E-20
  55606.898    0.2121E-20
  55606.970    0.2121E-20
  55607.042    0.2106E-20
  55607.114    0.2063E-20
  55607.186    0.2020E-20
  55607.258    0.2070E-20
  55607.330    0.2120E-20
  55607.402    0.2186E-20
  55607.474    0.2252E-20
  55607.546    0.2334E-20
  55607.618    0.2455E-20
  55607.689    0.2547E-20
  55607.761    0.2640E-20
  55607.833    0.2671E-20
  55607.905    0.2711E-20
  55607.977    0.2790E-20
  55608.049    0.2944E-20
  55608.121    0.3126E-20
  55608.193    0.3452E-20
  55608.265    0.3905E-20
  55608.337    0.4420E-20
  55608.409    0.4975E-20
  55608.481    0.5465E-20
  55608.553    0.6195E-20
  55608.625    0.7045E-20
  55608.697    0.8133E-20
  55608.769    0.9367E-20
  55608.841    0.1072E-19
  55608.913    0.1287E-19
  55608.985    0.1619E-19
  55609.057    0.1908E-19
  55609.129    0.2211E-19
  55609.201    0.2489E-19
  55609.273    0.2776E-19
  55609.345    0.3024E-19
  55609.417    0.3166E-19
  55609.489    0.3383E-19
  55609.561    0.3328E-19
  55609.633    0.3104E-19
  55609.705    0.3014E-19
  55609.777    0.2894E-19
  55609.849    0.2788E-19
  55609.921    0.2746E-19
  55609.993    0.2734E-19
  55610.065    0.2758E-19
  55610.137    0.2840E-19
  55610.208    0.2977E-19
  55610.280    0.3287E-19
  55610.352    0.3514E-19
  55610.424    0.3673E-19
  55610.496    0.3872E-19
  55610.568    0.4008E-19
  55610.640    0.4078E-19
  55610.712    0.4138E-19
  55610.784    0.4145E-19
  55610.856    0.4097E-19
  55610.928    0.3964E-19
  55611.000    0.3825E-19
  55611.072    0.3679E-19
  55611.144    0.3157E-19
  55611.216    0.2890E-19
  55611.288    0.2604E-19
  55611.360    0.2315E-19
  55611.432    0.2056E-19
  55611.504    0.1812E-19
  55611.576    0.1599E-19
  55611.648    0.1335E-19
  55611.720    0.1107E-19
  55611.792    0.1003E-19
  55611.864    0.9006E-20
  55611.936    0.8119E-20
  55612.008    0.7382E-20
  55612.080    0.6791E-20
  55612.152    0.6292E-20
  55612.224    0.5762E-20
  55612.296    0.5281E-20
  55612.368    0.4648E-20
  55612.440    0.4223E-20
  55612.512    0.3869E-20
  55612.584    0.3541E-20
  55612.656    0.3227E-20
  55612.728    0.2951E-20
  55612.800    0.2741E-20
  55612.872    0.2545E-20
  55612.944    0.2407E-20
  55613.016    0.2235E-20
  55613.088    0.2073E-20
  55613.160    0.1930E-20
  55613.232    0.1845E-20
  55613.304    0.1713E-20
  55613.376    0.1543E-20
  55613.448    0.1404E-20
  55613.520    0.1325E-20
  55613.592    0.1331E-20
  55613.664    0.1344E-20
  55613.736    0.1344E-20
  55613.808    0.1305E-20
  55613.879    0.1298E-20
  55613.951    0.1305E-20
  55614.023    0.1304E-20
  55614.095    0.1233E-20
  55614.167    0.1112E-20
  55614.239    0.1018E-20
  55614.311    0.9126E-21
  55614.383    0.8331E-21
  55614.455    0.7725E-21
  55614.527    0.7423E-21
  55614.599    0.7722E-21
  55614.671    0.7781E-21
  55614.743    0.7901E-21
  55614.815    0.7718E-21
  55614.887    0.6998E-21
  55614.959    0.6227E-21
  55615.031    0.5522E-21
  55615.103    0.5345E-21
  55615.175    0.4880E-21
  55615.247    0.4590E-21
  55615.319    0.4416E-21
  55615.391    0.4243E-21
  55615.463    0.4012E-21
  55615.535    0.3840E-21
  55615.607    0.3896E-21
  55615.679    0.3780E-21
  55615.751    0.3042E-21
  55615.823    0.2424E-21
  55615.895    0.2479E-21
  55615.967    0.2645E-21
  55616.039    0.2532E-21
  55616.111    0.2698E-21
  55616.183    0.2866E-21
  55616.255    0.3146E-21
  55616.327    0.3371E-21
  55616.399    0.3369E-21
  55616.471    0.3255E-21
  55616.543    0.3253E-21
  55616.615    0.3422E-21
  55616.687    0.3364E-21
  55616.759    0.3363E-21
  55616.831    0.2517E-21
  55616.903    0.1737E-21
  55616.975    0.1184E-21
  55617.047    0.1679E-21
  55617.119    0.2567E-21
  55617.191    0.3072E-21
  55617.263    0.3014E-21
  55617.335    0.3352E-21
  55617.407    0.3634E-21
  55617.479    0.3576E-21
  55617.551    0.3178E-21
  55617.623    0.2614E-21
  55617.695    0.2613E-21
  55617.767    0.2836E-21
  55617.839    0.2947E-21
  55617.911    0.2553E-21
  55617.983    0.2384E-21
  55618.055    0.2830E-21
  55618.127    0.3224E-21
  55618.199    0.3336E-21
  55618.271    0.2883E-21
  55618.343    0.2657E-21
  55618.415    0.2543E-21
  55618.487    0.2262E-21
  55618.559    0.1816E-21
  55618.631    0.1594E-21
  55618.703    0.1372E-21
  55618.775    0.9311E-22
  55618.847    0.8750E-22
  55618.919    0.7098E-22
  55618.991    0.1146E-21
  55619.063    0.1807E-21
  55619.135    0.2362E-21
  55619.207    0.2978E-21
  55619.279    0.3033E-21
  55619.351    0.2919E-21
  55619.423    0.2805E-21
  55619.495    0.2579E-21
  55619.567    0.2802E-21
  55619.639    0.2913E-21
  55619.711    0.2631E-21
  55619.783    0.2518E-21
  55619.855    0.2348E-21
  55619.927    0.1902E-21
  55619.999    0.2011E-21
  55620.071    0.2233E-21
  55620.143    0.2399E-21
  55620.215    0.2621E-21
  55620.287    0.3070E-21
  55620.359    0.3522E-21
  55620.431    0.3520E-21
  55620.503    0.3918E-21
  55620.575    0.3917E-21
  55620.647    0.3233E-21
  55620.719    0.2893E-21
  55620.791    0.2331E-21
  55620.863    0.1995E-21
  55620.935    0.2440E-21
  55621.007    0.3057E-21
  55621.079    0.3622E-21
  55621.151    0.4537E-21
  55621.223    0.5464E-21
  55621.295    0.6581E-21
  55621.367    0.7716E-21
  55621.439    0.8808E-21
  55621.511    0.9856E-21
  55621.583    0.1130E-20
  55621.655    0.1238E-20
  55621.727    0.1245E-20
  55621.799    0.1206E-20
  55621.871    0.1136E-20
  55621.943    0.1110E-20
  55622.015    0.1129E-20
  55622.087    0.1116E-20
  55622.159    0.1129E-20
  55622.231    0.1250E-20
  55622.303    0.1460E-20
  55622.375    0.1574E-20
  55622.447    0.1648E-20
  55622.519    0.1689E-20
  55622.591    0.1662E-20
  55622.663    0.1593E-20
  55622.735    0.1459E-20
  55622.807    0.1295E-20
  55622.879    0.1140E-20
  55622.951    0.9767E-21
  55623.023    0.7866E-21
  55623.095    0.6074E-21
  55623.167    0.4788E-21
  55623.239    0.3981E-21
  55623.311    0.3694E-21
  55623.383    0.3636E-21
  55623.455    0.3805E-21
  55623.527    0.4033E-21
  55623.599    0.3917E-21
  55623.671    0.3176E-21
  55623.744    0.2949E-21
  55623.816    0.2554E-21
  55623.888    0.2217E-21
  55623.960    0.2048E-21
  55624.032    0.1936E-21
  55624.104    0.2213E-21
  55624.176    0.2211E-21
  55624.248    0.2154E-21
  55624.320    0.1875E-21
  55624.392    0.2040E-21
  55624.464    0.1872E-21
  55624.536    0.1207E-21
  55624.608    0.1041E-21
  55624.680    0.1149E-21
  55624.752    0.1148E-21
  55624.824    0.1699E-21
  55624.896    0.1975E-21
  55624.968    0.2197E-21
  55625.040    0.1917E-21
  55625.112    0.1527E-21
  55625.184    0.1970E-21
  55625.256    0.1857E-21
  55625.328    0.1302E-21
  55625.400    0.1467E-21
  55625.472    0.1576E-21
  55625.544    0.1685E-21
  55625.616    0.2017E-21
  55625.688    0.2631E-21
  55625.760    0.3420E-21
  55625.832    0.4276E-21
  55625.904    0.5026E-21
  55625.976    0.6197E-21
  55626.048    0.7447E-21
  55626.120    0.8598E-21
  55626.192    0.9582E-21
  55626.264    0.1052E-20
  55626.336    0.1121E-20
  55626.408    0.1058E-20
  55626.480    0.9391E-21
  55626.552    0.8651E-21
  55626.624    0.8041E-21
  55626.696    0.7737E-21
  55626.768    0.8281E-21
  55626.840    0.8830E-21
  55626.912    0.9136E-21
  55626.984    0.9319E-21
  55627.056    0.1013E-20
  55627.128    0.1056E-20
  55627.200    0.1113E-20
  55627.272    0.1183E-20
  55627.344    0.1215E-20
  55627.417    0.1151E-20
  55627.489    0.1049E-20
  55627.561    0.9124E-21
  55627.633    0.7659E-21
  55627.705    0.6877E-21
  55627.777    0.6163E-21
  55627.849    0.5456E-21
  55627.921    0.4872E-21
  55627.993    0.4408E-21
  55628.065    0.4062E-21
  55628.137    0.3946E-21
  55628.209    0.3602E-21
  55628.281    0.3146E-21
  55628.353    0.2693E-21
  55628.425    0.2636E-21
  55628.497    0.2578E-21
  55628.569    0.2409E-21
  55628.641    0.2295E-21
  55628.713    0.2126E-21
  55628.785    0.1958E-21
  55628.857    0.1901E-21
  55628.929    0.1788E-21
  55629.001    0.1510E-21
  55629.073    0.1564E-21
  55629.145    0.1784E-21
  55629.217    0.2005E-21
  55629.289    0.2227E-21
  55629.361    0.1780E-21
  55629.433    0.1501E-21
  55629.505    0.1833E-21
  55629.577    0.2334E-21
  55629.649    0.2109E-21
  55629.721    0.2275E-21
  55629.793    0.2723E-21
  55629.865    0.2947E-21
  55629.938    0.2833E-21
  55630.010    0.2550E-21
  55630.082    0.2492E-21
  55630.154    0.2267E-21
  55630.226    0.2265E-21
  55630.298    0.2096E-21
  55630.370    0.2095E-21
  55630.442    0.2598E-21
  55630.514    0.3048E-21
  55630.586    0.3443E-21
  55630.658    0.3784E-21
  55630.730    0.3327E-21
  55630.802    0.2704E-21
  55630.874    0.2646E-21
  55630.946    0.2814E-21
  55631.018    0.2756E-21
  55631.090    0.2586E-21
  55631.162    0.2416E-21
  55631.234    0.2583E-21
  55631.306    0.3033E-21
  55631.378    0.3485E-21
  55631.450    0.3884E-21
  55631.522    0.3711E-21
  55631.594    0.3481E-21
  55631.666    0.3765E-21
  55631.738    0.4338E-21
  55631.810    0.5090E-21
  55631.882    0.5322E-21
  55631.955    0.5438E-21
  55632.027    0.5261E-21
  55632.099    0.4736E-21
  55632.171    0.3699E-21
  55632.243    0.2789E-21
  55632.315    0.2059E-21
  55632.387    0.1668E-21
  55632.459    0.1445E-21
  55632.531    0.1443E-21
  55632.603    0.1553E-21
  55632.675    0.1662E-21
  55632.747    0.1995E-21
  55632.819    0.2441E-21
  55632.891    0.2271E-21
  55632.963    0.1823E-21
  55633.035    0.2381E-21
  55633.107    0.2829E-21
  55633.179    0.3338E-21
  55633.251    0.4252E-21
  55633.323    0.4424E-21
  55633.395    0.4364E-21
  55633.467    0.5001E-21
  55633.539    0.5525E-21
  55633.611    0.6053E-21
  55633.683    0.6645E-21
  55633.756    0.6763E-21
  55633.828    0.6762E-21
  55633.900    0.7060E-21
  55633.972    0.7299E-21
  55634.044    0.7478E-21
  55634.116    0.7779E-21
  55634.188    0.8385E-21
  55634.260    0.8813E-21
  55634.332    0.9429E-21
  55634.404    0.1024E-20
  55634.476    0.1074E-20
  55634.548    0.1049E-20
  55634.620    0.9859E-21
  55634.692    0.9113E-21
  55634.764    0.8619E-21
  55634.836    0.8495E-21
  55634.908    0.8617E-21
  55634.980    0.8984E-21
  55635.052    0.9291E-21
  55635.124    0.9290E-21
  55635.196    0.9537E-21
  55635.268    0.1041E-20
  55635.341    0.1149E-20
  55635.413    0.1303E-20
  55635.485    0.1482E-20
  55635.557    0.1658E-20
  55635.629    0.1824E-20
  55635.701    0.1980E-20
  55635.773    0.2111E-20
  55635.845    0.2244E-20
  55635.917    0.2349E-20
  55635.989    0.2402E-20
  55636.061    0.2348E-20
  55636.133    0.2258E-20
  55636.205    0.2265E-20
  55636.277    0.2394E-20
  55636.349    0.2516E-20
  55636.421    0.2689E-20
  55636.493    0.2825E-20
  55636.565    0.2898E-20
  55636.637    0.2915E-20
  55636.709    0.2923E-20
  55636.782    0.2939E-20
  55636.854    0.2898E-20
  55636.926    0.2873E-20
  55636.998    0.2768E-20
  55637.070    0.2617E-20
  55637.142    0.2469E-20
  55637.214    0.2293E-20
  55637.286    0.2196E-20
  55637.358    0.2115E-20
  55637.430    0.2049E-20
  55637.502    0.2071E-20
  55637.574    0.2144E-20
  55637.646    0.2166E-20
  55637.718    0.2166E-20
  55637.790    0.2218E-20
  55637.862    0.2337E-20
  55637.934    0.2506E-20
  55638.006    0.2726E-20
  55638.079    0.3036E-20
  55638.151    0.3440E-20
  55638.223    0.3830E-20
  55638.295    0.4185E-20
  55638.367    0.4537E-20
  55638.439    0.5112E-20
  55638.511    0.5809E-20
  55638.583    0.6644E-20
  55638.655    0.7545E-20
  55638.727    0.8559E-20
  55638.799    0.9801E-20
  55638.871    0.1122E-19
  55638.943    0.1347E-19
  55639.015    0.1709E-19
  55639.087    0.2018E-19
  55639.159    0.2337E-19
  55639.231    0.2645E-19
  55639.304    0.2934E-19
  55639.376    0.3137E-19
  55639.448    0.3436E-19
  55639.520    0.3402E-19
  55639.592    0.3278E-19
  55639.664    0.3010E-19
  55639.736    0.2870E-19
  55639.808    0.2721E-19
  55639.880    0.2597E-19
  55639.952    0.2515E-19
  55640.024    0.2454E-19
  55640.096    0.2473E-19
  55640.168    0.2549E-19
  55640.240    0.2659E-19
  55640.312    0.2820E-19
  55640.384    0.3023E-19
  55640.456    0.3278E-19
  55640.529    0.3510E-19
  55640.601    0.3672E-19
  55640.673    0.3777E-19
  55640.745    0.3823E-19
  55640.817    0.3842E-19
  55640.889    0.3862E-19
  55640.961    0.3842E-19
  55641.033    0.3784E-19
  55641.105    0.3683E-19
  55641.177    0.3620E-19
  55641.249    0.3428E-19
  55641.321    0.3090E-19
  55641.393    0.2852E-19
  55641.465    0.2622E-19
  55641.537    0.2382E-19
  55641.610    0.2111E-19
  55641.682    0.1858E-19
  55641.754    0.1624E-19
  55641.826    0.1425E-19
  55641.898    0.1157E-19
  55641.970    0.1033E-19
  55642.042    0.9241E-20
  55642.114    0.8287E-20
  55642.186    0.7487E-20
  55642.258    0.6811E-20
  55642.330    0.6284E-20
  55642.402    0.5876E-20
  55642.474    0.5503E-20
  55642.546    0.5077E-20
  55642.618    0.4644E-20
  55642.691    0.4315E-20
  55642.763    0.4040E-20
  55642.835    0.3784E-20
  55642.907    0.3520E-20
  55642.979    0.3290E-20
  55643.051    0.3102E-20
  55643.123    0.2977E-20
  55643.195    0.2861E-20
  55643.267    0.2764E-20
  55643.339    0.2621E-20
  55643.411    0.2426E-20
  55643.483    0.2244E-20
  55643.555    0.2067E-20
  55643.627    0.2002E-20
  55643.700    0.1930E-20
  55643.772    0.1858E-20
  55643.844    0.1837E-20
  55643.916    0.1816E-20
  55643.988    0.1760E-20
  55644.060    0.1711E-20
  55644.132    0.1648E-20
  55644.204    0.1580E-20
  55644.276    0.1465E-20
  55644.348    0.1332E-20
  55644.420    0.1273E-20
  55644.492    0.1234E-20
  55644.564    0.1182E-20
  55644.636    0.1131E-20
  55644.709    0.1105E-20
  55644.781    0.1112E-20
  55644.853    0.1054E-20
  55644.925    0.9852E-21
  55644.997    0.9166E-21
  55645.069    0.8364E-21
  55645.141    0.8179E-21
  55645.213    0.8545E-21
  55645.285    0.9471E-21
  55645.357    0.9969E-21
  55645.429    0.9968E-21
  55645.501    0.9778E-21
  55645.573    0.9840E-21
  55645.646    0.9402E-21
  55645.718    0.8782E-21
  55645.790    0.8780E-21
  55645.862    0.9088E-21
  55645.934    0.9459E-21
  55646.006    0.9457E-21
  55646.078    0.9269E-21
  55646.150    0.8897E-21
  55646.222    0.8526E-21
  55646.294    0.8157E-21
  55646.366    0.8095E-21
  55646.438    0.7972E-21
  55646.511    0.8031E-21
  55646.583    0.8274E-21
  55646.655    0.8273E-21
  55646.727    0.8149E-21
  55646.799    0.7782E-21
  55646.871    0.7417E-21
  55646.943    0.7597E-21
  55647.015    0.8022E-21
  55647.087    0.8265E-21
  55647.159    0.8263E-21
  55647.231    0.8262E-21
  55647.303    0.8077E-21
  55647.376    0.8320E-21
  55647.448    0.8749E-21
  55647.520    0.9740E-21
  55647.592    0.1100E-20
  55647.664    0.1183E-20
  55647.736    0.1261E-20
  55647.808    0.1418E-20
  55647.880    0.1641E-20
  55647.952    0.1886E-20
  55648.024    0.2095E-20
  55648.096    0.2371E-20
  55648.168    0.2588E-20
  55648.241    0.2706E-20
  55648.313    0.2738E-20
  55648.385    0.2738E-20
  55648.457    0.2762E-20
  55648.529    0.2746E-20
  55648.601    0.2706E-20
  55648.673    0.2730E-20
  55648.745    0.2826E-20
  55648.817    0.2958E-20
  55648.889    0.3125E-20
  55648.961    0.3262E-20
  55649.033    0.3331E-20
  55649.106    0.3357E-20
  55649.178    0.3305E-20
  55649.250    0.3218E-20
  55649.322    0.3023E-20
  55649.394    0.2769E-20
  55649.466    0.2507E-20
  55649.538    0.2308E-20
  55649.610    0.2121E-20
  55649.682    0.1925E-20
  55649.754    0.1763E-20
  55649.826    0.1597E-20
  55649.899    0.1522E-20
  55649.971    0.1549E-20
  55650.043    0.1528E-20
  55650.115    0.1454E-20
  55650.187    0.1361E-20
  55650.259    0.1334E-20
  55650.331    0.1380E-20
  55650.403    0.1427E-20
  55650.475    0.1467E-20
  55650.547    0.1500E-20
  55650.619    0.1520E-20
  55650.692    0.1507E-20
  55650.764    0.1561E-20
  55650.836    0.1650E-20
  55650.908    0.1726E-20
  55650.980    0.1746E-20
  55651.052    0.1746E-20
  55651.124    0.1732E-20
  55651.196    0.1767E-20
  55651.268    0.1809E-20
  55651.340    0.1973E-20
  55651.412    0.2177E-20
  55651.485    0.2365E-20
  55651.557    0.2566E-20
  55651.629    0.2821E-20
  55651.701    0.3145E-20
  55651.773    0.3476E-20
  55651.845    0.3638E-20
  55651.917    0.3684E-20
  55651.989    0.3620E-20
  55652.061    0.3476E-20
  55652.133    0.3413E-20
  55652.206    0.3404E-20
  55652.278    0.3520E-20
  55652.350    0.3785E-20
  55652.422    0.4119E-20
  55652.494    0.4449E-20
  55652.566    0.4773E-20
  55652.638    0.5046E-20
  55652.710    0.5238E-20
  55652.782    0.5276E-20
  55652.854    0.5418E-20
  55652.927    0.5503E-20
  55652.999    0.5587E-20
  55653.071    0.5663E-20
  55653.143    0.5809E-20
  55653.215    0.5927E-20
  55653.287    0.6015E-20
  55653.359    0.6037E-20
  55653.431    0.6069E-20
  55653.503    0.6137E-20
  55653.575    0.6240E-20
  55653.648    0.6414E-20
  55653.720    0.6721E-20
  55653.792    0.7065E-20
  55653.864    0.7438E-20
  55653.936    0.7772E-20
  55654.008    0.8139E-20
  55654.080    0.8551E-20
  55654.152    0.9004E-20
  55654.224    0.9577E-20
  55654.296    0.1028E-19
  55654.369    0.1113E-19
  55654.441    0.1211E-19
  55654.513    0.1351E-19
  55654.585    0.1493E-19
  55654.657    0.1647E-19
  55654.729    0.1855E-19
  55654.801    0.2069E-19
  55654.873    0.2334E-19
  55654.945    0.2637E-19
  55655.017    0.2978E-19
  55655.090    0.3936E-19
  55655.162    0.4595E-19
  55655.234    0.5312E-19
  55655.306    0.6158E-19
  55655.378    0.7110E-19
  55655.450    0.8123E-19
  55655.522    0.9817E-19
  55655.594    0.1102E-18
  55655.666    0.1186E-18
  55655.739    0.1234E-18
  55655.811    0.1230E-18
  55655.883    0.1197E-18
  55655.955    0.1150E-18
  55656.027    0.1099E-18
  55656.099    0.1062E-18
  55656.171    0.1048E-18
  55656.243    0.1049E-18
  55656.315    0.1063E-18
  55656.388    0.1099E-18
  55656.460    0.1155E-18
  55656.532    0.1227E-18
  55656.604    0.1307E-18
  55656.676    0.1371E-18
  55656.748    0.1411E-18
  55656.820    0.1413E-18
  55656.892    0.1402E-18
  55656.964    0.1373E-18
  55657.037    0.1334E-18
  55657.109    0.1279E-18
  55657.181    0.1198E-18
  55657.253    0.1101E-18
  55657.325    0.9954E-19
  55657.397    0.8056E-19
  55657.469    0.5956E-19
  55657.541    0.5222E-19
  55657.613    0.4579E-19
  55657.686    0.4025E-19
  55657.758    0.3155E-19
  55657.830    0.2824E-19
  55657.902    0.2544E-19
  55657.974    0.2329E-19
  55658.046    0.2136E-19
  55658.118    0.1972E-19
  55658.190    0.1812E-19
  55658.262    0.1649E-19
  55658.335    0.1509E-19
  55658.407    0.1386E-19
  55658.479    0.1232E-19
  55658.551    0.1152E-19
  55658.623    0.1091E-19
  55658.695    0.1027E-19
  55658.767    0.9740E-20
  55658.839    0.9390E-20
  55658.911    0.9114E-20
  55658.984    0.8951E-20
  55659.056    0.8775E-20
  55659.128    0.8550E-20
  55659.200    0.8232E-20
  55659.272    0.7847E-20
  55659.344    0.7448E-20
  55659.416    0.7061E-20
  55659.488    0.6848E-20
  55659.561    0.6730E-20
  55659.633    0.6685E-20
  55659.705    0.6694E-20
  55659.777    0.6692E-20
  55659.849    0.6565E-20
  55659.921    0.6390E-20
  55659.993    0.6169E-20
  55660.065    0.5857E-20
  55660.138    0.5467E-20
  55660.210    0.4988E-20
  55660.282    0.4610E-20
  55660.354    0.4192E-20
  55660.426    0.3779E-20
  55660.498    0.3486E-20
  55660.570    0.3318E-20
  55660.642    0.3188E-20
  55660.714    0.3027E-20
  55660.787    0.2885E-20
  55660.859    0.2755E-20
  55660.931    0.2619E-20
  55661.003    0.2470E-20
  55661.075    0.2393E-20
  55661.147    0.2347E-20
  55661.219    0.2301E-20
  55661.291    0.2241E-20
  55661.364    0.2166E-20
  55661.436    0.2092E-20
  55661.508    0.2070E-20
  55661.580    0.2121E-20
  55661.652    0.2217E-20
  55661.724    0.2247E-20
  55661.796    0.2307E-20
  55661.868    0.2445E-20
  55661.941    0.2617E-20
  55662.013    0.2875E-20
  55662.085    0.3177E-20
  55662.157    0.3474E-20
  55662.229    0.3591E-20
  55662.301    0.3528E-20
  55662.373    0.3412E-20
  55662.445    0.3254E-20
  55662.518    0.3125E-20
  55662.590    0.3065E-20
  55662.662    0.3031E-20
  55662.734    0.3065E-20
  55662.806    0.3133E-20
  55662.878    0.3262E-20
  55662.950    0.3428E-20
  55663.022    0.3536E-20
  55663.095    0.3626E-20
  55663.167    0.3672E-20
  55663.239    0.3626E-20
  55663.311    0.3472E-20
  55663.383    0.3209E-20
  55663.455    0.2905E-20
  55663.527    0.2646E-20
  55663.600    0.2419E-20
  55663.672    0.2191E-20
  55663.744    0.1963E-20
  55663.816    0.1729E-20
  55663.888    0.1584E-20
  55663.960    0.1509E-20
  55664.032    0.1441E-20
  55664.104    0.1361E-20
  55664.177    0.1223E-20
  55664.249    0.1139E-20
  55664.321    0.1126E-20
  55664.393    0.1100E-20
  55664.465    0.1062E-20
  55664.537    0.1074E-20
  55664.609    0.1093E-20
  55664.682    0.1144E-20
  55664.754    0.1164E-20
  55664.826    0.1125E-20
  55664.898    0.1112E-20
  55664.970    0.1112E-20
  55665.042    0.1118E-20
  55665.114    0.1099E-20
  55665.186    0.1067E-20
  55665.259    0.1054E-20
  55665.331    0.1041E-20
  55665.403    0.1028E-20
  55665.475    0.1028E-20
  55665.547    0.1015E-20
  55665.619    0.9900E-21
  55665.691    0.1021E-20
  55665.764    0.1072E-20
  55665.836    0.1091E-20
  55665.908    0.1097E-20
  55665.980    0.1053E-20
  55666.052    0.9829E-21
  55666.124    0.9077E-21
  55666.196    0.8703E-21
  55666.268    0.8764E-21
  55666.341    0.9322E-21
  55666.413    0.1007E-20
  55666.485    0.1052E-20
  55666.557    0.1032E-20
  55666.629    0.9755E-21
  55666.701    0.8817E-21
  55666.773    0.8015E-21
  55666.846    0.7403E-21
  55666.918    0.7038E-21
  55666.990    0.7037E-21
  55667.062    0.7035E-21
  55667.134    0.7034E-21
  55667.206    0.7640E-21
  55667.278    0.8497E-21
  55667.351    0.8805E-21
  55667.423    0.8928E-21
  55667.495    0.9238E-21
  55667.567    0.9989E-21
  55667.639    0.1068E-20
  55667.711    0.1081E-20
  55667.783    0.1087E-20
  55667.856    0.1100E-20
  55667.928    0.1209E-20
  55668.000    0.1407E-20
  55668.072    0.1638E-20
  55668.144    0.1905E-20
  55668.216    0.2160E-20
  55668.288    0.2402E-20
  55668.361    0.2660E-20
  55668.433    0.2854E-20
  55668.505    0.2929E-20
  55668.577    0.2953E-20
  55668.649    0.2895E-20
  55668.721    0.2862E-20
  55668.793    0.2895E-20
  55668.866    0.3003E-20
  55668.938    0.3104E-20
  55669.010    0.3207E-20
  55669.082    0.3302E-20
  55669.154    0.3390E-20
  55669.226    0.3443E-20
  55669.298    0.3452E-20
  55669.371    0.3372E-20
  55669.443    0.3232E-20
  55669.515    0.3010E-20
  55669.587    0.2779E-20
  55669.659    0.2547E-20
  55669.731    0.2262E-20
  55669.804    0.2017E-20
  55669.876    0.1816E-20
  55669.948    0.1683E-20
  55670.020    0.1586E-20
  55670.092    0.1517E-20
  55670.164    0.1504E-20
  55670.236    0.1510E-20
  55670.309    0.1524E-20
  55670.381    0.1585E-20
  55670.453    0.1599E-20
  55670.525    0.1688E-20
  55670.597    0.1864E-20
  55670.669    0.2038E-20
  55670.741    0.2275E-20
  55670.814    0.2529E-20
  55670.886    0.2842E-20
  55670.958    0.3092E-20
  55671.030    0.3203E-20
  55671.102    0.3220E-20
  55671.174    0.3168E-20
  55671.247    0.3074E-20
  55671.319    0.2956E-20
  55671.391    0.2874E-20
  55671.463    0.2898E-20
  55671.535    0.3006E-20
  55671.607    0.3210E-20
  55671.679    0.3429E-20
  55671.752    0.3601E-20
  55671.824    0.3711E-20
  55671.896    0.3832E-20
  55671.968    0.3832E-20
  55672.040    0.3701E-20
  55672.112    0.3527E-20
  55672.185    0.3305E-20
  55672.257    0.3064E-20
  55672.329    0.2798E-20
  55672.401    0.2503E-20
  55672.473    0.2227E-20
  55672.545    0.1961E-20
  55672.617    0.1783E-20
  55672.690    0.1622E-20
  55672.762    0.1506E-20
  55672.834    0.1391E-20
  55672.906    0.1318E-20
  55672.978    0.1272E-20
  55673.050    0.1193E-20
  55673.123    0.1161E-20
  55673.195    0.1186E-20
  55673.267    0.1193E-20
  55673.339    0.1160E-20
  55673.411    0.1121E-20
  55673.483    0.1096E-20
  55673.556    0.1064E-20
  55673.628    0.1051E-20
  55673.700    0.1012E-20
  55673.772    0.9808E-21
  55673.844    0.1012E-20
  55673.916    0.1044E-20
  55673.988    0.1056E-20
  55674.061    0.1120E-20
  55674.133    0.1185E-20
  55674.205    0.1237E-20
  55674.277    0.1256E-20
  55674.349    0.1236E-20
  55674.421    0.1217E-20
  55674.494    0.1203E-20
  55674.566    0.1203E-20
  55674.638    0.1203E-20
  55674.710    0.1216E-20
  55674.782    0.1268E-20
  55674.854    0.1321E-20
  55674.927    0.1400E-20
  55674.999    0.1467E-20
  55675.071    0.1508E-20
  55675.143    0.1528E-20
  55675.215    0.1501E-20
  55675.287    0.1474E-20
  55675.360    0.1480E-20
  55675.432    0.1467E-20
  55675.504    0.1528E-20
  55675.576    0.1721E-20
  55675.648    0.1992E-20
  55675.720    0.2380E-20
  55675.793    0.2751E-20
  55675.865    0.3023E-20
  55675.937    0.3298E-20
  55676.009    0.3484E-20
  55676.081    0.3547E-20
  55676.153    0.3547E-20
  55676.226    0.3448E-20
  55676.298    0.3323E-20
  55676.370    0.3288E-20
  55676.442    0.3288E-20
  55676.514    0.3349E-20
  55676.586    0.3474E-20
  55676.659    0.3573E-20
  55676.731    0.3628E-20
  55676.803    0.3628E-20
  55676.875    0.3637E-20
  55676.947    0.3710E-20
  55677.019    0.3860E-20
  55677.092    0.3946E-20
  55677.164    0.4013E-20
  55677.236    0.4023E-20
  55677.308    0.4004E-20
  55677.380    0.4013E-20
  55677.452    0.4111E-20
  55677.525    0.4259E-20
  55677.597    0.4442E-20
  55677.669    0.4726E-20
  55677.741    0.5044E-20
  55677.813    0.5365E-20
  55677.885    0.5439E-20
  55677.958    0.5935E-20
  55678.030    0.6402E-20
  55678.102    0.6768E-20
  55678.174    0.7016E-20
  55678.246    0.7044E-20
  55678.319    0.6959E-20
  55678.391    0.6898E-20
  55678.463    0.6802E-20
  55678.535    0.6750E-20
  55678.607    0.6839E-20
  55678.679    0.6938E-20
  55678.752    0.7191E-20
  55678.824    0.7518E-20
  55678.896    0.7838E-20
  55678.968    0.8158E-20
  55679.040    0.8423E-20
  55679.112    0.8702E-20
  55679.185    0.8928E-20
  55679.257    0.9044E-20
  55679.329    0.9042E-20
  55679.401    0.9040E-20
  55679.473    0.9060E-20
  55679.545    0.9093E-20
  55679.618    0.9231E-20
  55679.690    0.9530E-20
  55679.762    0.9896E-20
  55679.834    0.1042E-19
  55679.906    0.1096E-19
  55679.979    0.1153E-19
  55680.051    0.1229E-19
  55680.123    0.1385E-19
  55680.195    0.1488E-19
  55680.267    0.1596E-19
  55680.339    0.1728E-19
  55680.412    0.1910E-19
  55680.484    0.2141E-19
  55680.556    0.2429E-19
  55680.628    0.2790E-19
  55680.700    0.3687E-19
  55680.773    0.4323E-19
  55680.845    0.5043E-19
  55680.917    0.5847E-19
  55680.989    0.6730E-19
  55681.061    0.7703E-19
  55681.133    0.9694E-19
  55681.206    0.9974E-19
  55681.278    0.1073E-18
  55681.350    0.1135E-18
  55681.422    0.1173E-18
  55681.494    0.1178E-18
  55681.567    0.1161E-18
  55681.639    0.1130E-18
  55681.711    0.1076E-18
  55681.783    0.1010E-18
  55681.855    0.9805E-19
  55681.927    0.9785E-19
  55682.000    0.9921E-19
  55682.072    0.1011E-18
  55682.144    0.1044E-18
  55682.216    0.1085E-18
  55682.288    0.1149E-18
  55682.361    0.1230E-18
  55682.433    0.1307E-18
  55682.505    0.1376E-18
  55682.577    0.1425E-18
  55682.649    0.1452E-18
  55682.721    0.1456E-18
  55682.794    0.1434E-18
  55682.866    0.1389E-18
  55682.938    0.1349E-18
  55683.010    0.1296E-18
  55683.082    0.1223E-18
  55683.155    0.1143E-18
  55683.227    0.1046E-18
  55683.299    0.9491E-19
  55683.371    0.7863E-19
  55683.443    0.6053E-19
  55683.516    0.5395E-19
  55683.588    0.4775E-19
  55683.660    0.4198E-19
  55683.732    0.3716E-19
  55683.804    0.3099E-19
  55683.876    0.2816E-19
  55683.949    0.2599E-19
  55684.021    0.2424E-19
  55684.093    0.2274E-19
  55684.165    0.2124E-19
  55684.237    0.1997E-19
  55684.310    0.1868E-19
  55684.382    0.1757E-19
  55684.454    0.1671E-19
  55684.526    0.1592E-19
  55684.598    0.1507E-19
  55684.671    0.1422E-19
  55684.743    0.1295E-19
  55684.815    0.1162E-19
  55684.887    0.1082E-19
  55684.959    0.9924E-20
  55685.032    0.9136E-20
  55685.104    0.8470E-20
  55685.176    0.7896E-20
  55685.248    0.7435E-20
  55685.320    0.7045E-20
  55685.392    0.6722E-20
  55685.465    0.6421E-20
  55685.537    0.6197E-20
  55685.609    0.6040E-20
  55685.681    0.5928E-20
  55685.753    0.5808E-20
  55685.826    0.5730E-20
  55685.898    0.5717E-20
  55685.970    0.5753E-20
  55686.042    0.5760E-20
  55686.114    0.5625E-20
  55686.187    0.5507E-20
  55686.259    0.5382E-20
  55686.331    0.5292E-20
  55686.403    0.5179E-20
  55686.475    0.5106E-20
  55686.548    0.4960E-20
  55686.620    0.4849E-20
  55686.692    0.4806E-20
  55686.764    0.4795E-20
  55686.836    0.4762E-20
  55686.909    0.4784E-20
  55686.981    0.4805E-20
  55687.053    0.4849E-20
  55687.125    0.4959E-20
  55687.197    0.5208E-20
  55687.270    0.5453E-20
  55687.342    0.5601E-20
  55687.414    0.5720E-20
  55687.486    0.5764E-20
  55687.558    0.5735E-20
  55687.631    0.5639E-20
  55687.703    0.5590E-20
  55687.775    0.5507E-20
  55687.847    0.5428E-20
  55687.919    0.5537E-20
  55687.992    0.5727E-20
  55688.064    0.5949E-20
  55688.136    0.6089E-20
  55688.208    0.6164E-20
  55688.280    0.6180E-20
  55688.353    0.6186E-20
  55688.425    0.6111E-20
  55688.497    0.5961E-20
  55688.569    0.5878E-20
  55688.641    0.5790E-20
  55688.714    0.5728E-20
  55688.786    0.5651E-20
  55688.858    0.5491E-20
  55688.930    0.5383E-20
  55689.002    0.5266E-20
  55689.075    0.5195E-20
  55689.147    0.5249E-20
  55689.219    0.5308E-20
  55689.291    0.5420E-20
  55689.363    0.5641E-20
  55689.436    0.5852E-20
  55689.508    0.5993E-20
  55689.580    0.6105E-20
  55689.652    0.6123E-20
  55689.725    0.6147E-20
  55689.797    0.6204E-20
  55689.869    0.6309E-20
  55689.941    0.6430E-20
  55690.013    0.6481E-20
  55690.086    0.6478E-20
  55690.158    0.6421E-20
  55690.230    0.6282E-20
  55690.302    0.6060E-20
  55690.374    0.5795E-20
  55690.447    0.5631E-20
  55690.519    0.5574E-20
  55690.591    0.5481E-20
  55690.663    0.5405E-20
  55690.735    0.5328E-20
  55690.808    0.5345E-20
  55690.880    0.5430E-20
  55690.952    0.5547E-20
  55691.024    0.5697E-20
  55691.096    0.5803E-20
  55691.169    0.5851E-20
  55691.241    0.5886E-20
  55691.313    0.5978E-20
  55691.385    0.6176E-20
  55691.458    0.6453E-20
  55691.530    0.6655E-20
  55691.602    0.6869E-20
  55691.674    0.7074E-20
  55691.746    0.7299E-20
  55691.819    0.7655E-20
  55691.891    0.8076E-20
  55691.963    0.8524E-20
  55692.035    0.8985E-20
  55692.107    0.9532E-20
  55692.180    0.1017E-19
  55692.252    0.1085E-19
  55692.324    0.1160E-19
  55692.396    0.1244E-19
  55692.469    0.1348E-19
  55692.541    0.1400E-19
  55692.613    0.1497E-19
  55692.685    0.1604E-19
  55692.757    0.1711E-19
  55692.830    0.1784E-19
  55692.902    0.1833E-19
  55692.974    0.1881E-19
  55693.046    0.1943E-19
  55693.118    0.2015E-19
  55693.191    0.2108E-19
  55693.263    0.2209E-19
  55693.335    0.2329E-19
  55693.407    0.2481E-19
  55693.480    0.2662E-19
  55693.552    0.2865E-19
  55693.624    0.3649E-19
  55693.696    0.4069E-19
  55693.768    0.4502E-19
  55693.841    0.4952E-19
  55693.913    0.5422E-19
  55693.985    0.5955E-19
  55694.057    0.6659E-19
  55694.129    0.7506E-19
  55694.202    0.9792E-19
  55694.274    0.1061E-18
  55694.346    0.1239E-18
  55694.418    0.1454E-18
  55694.491    0.1687E-18
  55694.563    0.1948E-18
  55694.635    0.2634E-18
  55694.707    0.2921E-18
  55694.779    0.3142E-18
  55694.852    0.3261E-18
  55694.924    0.3291E-18
  55694.996    0.3270E-18
  55695.068    0.3217E-18
  55695.141    0.3176E-18
  55695.213    0.3146E-18
  55695.285    0.3173E-18
  55695.357    0.3208E-18
  55695.429    0.3276E-18
  55695.502    0.3405E-18
  55695.574    0.3560E-18
  55695.646    0.3715E-18
  55695.718    0.3880E-18
  55695.791    0.3949E-18
  55695.863    0.3932E-18
  55695.935    0.3855E-18
  55696.007    0.3768E-18
  55696.079    0.3532E-18
  55696.152    0.3231E-18
  55696.224    0.2895E-18
  55696.296    0.2613E-18
  55696.368    0.2129E-18
  55696.441    0.1776E-18
  55696.513    0.1545E-18
  55696.585    0.1346E-18
  55696.657    0.1160E-18
  55696.730    0.1003E-18
  55696.802    0.8069E-19
  55696.874    0.6332E-19
  55696.946    0.5693E-19
  55697.018    0.5152E-19
  55697.091    0.4694E-19
  55697.163    0.4292E-19
  55697.235    0.3966E-19
  55697.307    0.3673E-19
  55697.380    0.3393E-19
  55697.452    0.3052E-19
  55697.524    0.2859E-19
  55697.596    0.2669E-19
  55697.669    0.2483E-19
  55697.741    0.2293E-19
  55697.813    0.2113E-19
  55697.885    0.1964E-19
  55697.957    0.1828E-19
  55698.030    0.1725E-19
  55698.102    0.1648E-19
  55698.174    0.1574E-19
  55698.246    0.1505E-19
  55698.319    0.1429E-19
  55698.391    0.1339E-19
  55698.463    0.1230E-19
  55698.535    0.1160E-19
  55698.608    0.1096E-19
  55698.680    0.1040E-19
  55698.752    0.9926E-20
  55698.824    0.9510E-20
  55698.896    0.9207E-20
  55698.969    0.8831E-20
  55699.041    0.8523E-20
  55699.113    0.8261E-20
  55699.185    0.8005E-20
  55699.258    0.7728E-20
  55699.330    0.7498E-20
  55699.402    0.7260E-20
  55699.474    0.7050E-20
  55699.547    0.6925E-20
  55699.619    0.6689E-20
  55699.691    0.6408E-20
  55699.763    0.6106E-20
  55699.835    0.5813E-20
  55699.908    0.5674E-20
  55699.980    0.5590E-20
  55700.052    0.5515E-20
  55700.124    0.5339E-20
  55700.197    0.5135E-20
  55700.269    0.5125E-20
  55700.341    0.4945E-20
  55700.413    0.4769E-20
  55700.486    0.4597E-20
  55700.558    0.4492E-20
  55700.630    0.4398E-20
  55700.702    0.4316E-20
  55700.775    0.4235E-20
  55700.847    0.4175E-20
  55700.919    0.4155E-20
  55700.991    0.4145E-20
  55701.064    0.4085E-20
  55701.136    0.4075E-20
  55701.208    0.4055E-20
  55701.280    0.3997E-20
  55701.352    0.3881E-20
  55701.425    0.3785E-20
  55701.497    0.3673E-20
  55701.569    0.3571E-20
  55701.641    0.3525E-20
  55701.714    0.3498E-20
  55701.786    0.3471E-20
  55701.858    0.3480E-20
  55701.930    0.3417E-20
  55702.003    0.3318E-20
  55702.075    0.3213E-20
  55702.147    0.3230E-20
  55702.219    0.3256E-20
  55702.292    0.3239E-20
  55702.364    0.3221E-20
  55702.436    0.3186E-20
  55702.508    0.3160E-20
  55702.581    0.3134E-20
  55702.653    0.3151E-20
  55702.725    0.3151E-20
  55702.797    0.3108E-20
  55702.870    0.3108E-20
  55702.942    0.3082E-20
  55703.014    0.2980E-20
  55703.086    0.2921E-20
  55703.159    0.2912E-20
  55703.231    0.2954E-20
  55703.303    0.2954E-20
  55703.375    0.2929E-20
  55703.448    0.2954E-20
  55703.520    0.2954E-20
  55703.592    0.2987E-20
  55703.664    0.3012E-20
  55703.737    0.3029E-20
  55703.809    0.3038E-20
  55703.881    0.3054E-20
  55703.953    0.3089E-20
  55704.026    0.3123E-20
  55704.098    0.3071E-20
  55704.170    0.3045E-20
  55704.242    0.3088E-20
  55704.315    0.3174E-20
  55704.387    0.3244E-20
  55704.459    0.3217E-20
  55704.531    0.3165E-20
  55704.604    0.3079E-20
  55704.676    0.2994E-20
  55704.748    0.2985E-20
  55704.820    0.3002E-20
  55704.893    0.3010E-20
  55704.965    0.3044E-20
  55705.037    0.2984E-20
  55705.109    0.2859E-20
  55705.182    0.2768E-20
  55705.254    0.2735E-20
  55705.326    0.2727E-20
  55705.398    0.2711E-20
  55705.471    0.2694E-20
  55705.543    0.2710E-20
  55705.615    0.2759E-20
  55705.687    0.2743E-20
  55705.760    0.2751E-20
  55705.832    0.2702E-20
  55705.904    0.2645E-20
  55705.976    0.2613E-20
  55706.049    0.2589E-20
  55706.121    0.2589E-20
  55706.193    0.2580E-20
  55706.265    0.2588E-20
  55706.338    0.2604E-20
  55706.410    0.2652E-20
  55706.482    0.2717E-20
  55706.554    0.2807E-20
  55706.627    0.2906E-20
  55706.699    0.2981E-20
  55706.771    0.3032E-20
  55706.843    0.3066E-20
  55706.916    0.3006E-20
  55706.988    0.2972E-20
  55707.060    0.2964E-20
  55707.132    0.2997E-20
  55707.205    0.3014E-20
  55707.277    0.2980E-20
  55707.349    0.2972E-20
  55707.421    0.2971E-20
  55707.494    0.3005E-20
  55707.566    0.3082E-20
  55707.638    0.3229E-20
  55707.710    0.3308E-20
  55707.783    0.3299E-20
  55707.855    0.3290E-20
  55707.927    0.3307E-20
  55707.999    0.3325E-20
  55708.072    0.3289E-20
  55708.144    0.3219E-20
  55708.216    0.3149E-20
  55708.289    0.3055E-20
  55708.361    0.2978E-20
  55708.433    0.2986E-20
  55708.505    0.3097E-20
  55708.578    0.3123E-20
  55708.650    0.3122E-20
  55708.722    0.3114E-20
  55708.794    0.3122E-20
  55708.867    0.3139E-20
  55708.939    0.3139E-20
  55709.011    0.3139E-20
  55709.083    0.3182E-20
  55709.156    0.3243E-20
  55709.228    0.3296E-20
  55709.300    0.3340E-20
  55709.372    0.3349E-20
  55709.445    0.3322E-20
  55709.517    0.3366E-20
  55709.589    0.3465E-20
  55709.662    0.3565E-20
  55709.734    0.3666E-20
  55709.806    0.3713E-20
  55709.878    0.3732E-20
  55709.951    0.3713E-20
  55710.023    0.3731E-20
  55710.095    0.3712E-20
  55710.167    0.3656E-20
  55710.240    0.3628E-20
  55710.312    0.3610E-20
  55710.384    0.3665E-20
  55710.456    0.3712E-20
  55710.529    0.3749E-20
  55710.601    0.3844E-20
  55710.673    0.3979E-20
  55710.746    0.4077E-20
  55710.818    0.4176E-20
  55710.890    0.4287E-20
  55710.962    0.4409E-20
  55711.035    0.4482E-20
  55711.107    0.4587E-20
  55711.179    0.4651E-20
  55711.251    0.4770E-20
  55711.324    0.4901E-20
  55711.396    0.4957E-20
  55711.468    0.5036E-20
  55711.540    0.5092E-20
  55711.613    0.5149E-20
  55711.685    0.5265E-20
  55711.757    0.5194E-20
  55711.830    0.5360E-20
  55711.902    0.5555E-20
  55711.974    0.5756E-20
  55712.046    0.5911E-20
  55712.119    0.5988E-20
  55712.191    0.6010E-20
  55712.263    0.6095E-20
  55712.335    0.6227E-20
  55712.408    0.6475E-20
  55712.480    0.6731E-20
  55712.552    0.7068E-20
  55712.625    0.7420E-20
  55712.697    0.7733E-20
  55712.769    0.8049E-20
  55712.841    0.8406E-20
  55712.914    0.8658E-20
  55712.986    0.9020E-20
  55713.058    0.9477E-20
  55713.130    0.9936E-20
  55713.203    0.1040E-19
  55713.275    0.1080E-19
  55713.347    0.1116E-19
  55713.420    0.1161E-19
  55713.492    0.1208E-19
  55713.564    0.1253E-19
  55713.636    0.1256E-19
  55713.709    0.1335E-19
  55713.781    0.1367E-19
  55713.853    0.1439E-19
  55713.926    0.1505E-19
  55713.998    0.1574E-19
  55714.070    0.1666E-19
  55714.142    0.1798E-19
  55714.215    0.1971E-19
  55714.287    0.2157E-19
  55714.359    0.2348E-19
  55714.431    0.2543E-19
  55714.504    0.2738E-19
  55714.576    0.2945E-19
  55714.648    0.3170E-19
  55714.721    0.3496E-19
  55714.793    0.3754E-19
  55714.865    0.4064E-19
  55714.937    0.4455E-19
  55715.010    0.4936E-19
  55715.082    0.5460E-19
  55715.154    0.6068E-19
  55715.227    0.6796E-19
  55715.299    0.7633E-19
  55715.371    0.9789E-19
  55715.443    0.1127E-18
  55715.516    0.1319E-18
  55715.588    0.1539E-18
  55715.660    0.1774E-18
  55715.732    0.2185E-18
  55715.805    0.2685E-18
  55715.877    0.2960E-18
  55715.949    0.3151E-18
  55716.022    0.3240E-18
  55716.094    0.3259E-18
  55716.166    0.3203E-18
  55716.238    0.3119E-18
  55716.311    0.2996E-18
  55716.383    0.2894E-18
  55716.455    0.2839E-18
  55716.528    0.2826E-18
  55716.600    0.2870E-18
  55716.672    0.2960E-18
  55716.744    0.3120E-18
  55716.817    0.3283E-18
  55716.889    0.3466E-18
  55716.961    0.3646E-18
  55717.034    0.3785E-18
  55717.106    0.3831E-18
  55717.178    0.3896E-18
  55717.250    0.3882E-18
  55717.323    0.3837E-18
  55717.395    0.3737E-18
  55717.467    0.3553E-18
  55717.540    0.3315E-18
  55717.612    0.3044E-18
  55717.684    0.2764E-18
  55717.756    0.2468E-18
  55717.829    0.2013E-18
  55717.901    0.1783E-18
  55717.973    0.1572E-18
  55718.046    0.1376E-18
  55718.118    0.1207E-18
  55718.190    0.1065E-18
  55718.263    0.9325E-19
  55718.335    0.7427E-19
  55718.407    0.6613E-19
  55718.479    0.5859E-19
  55718.552    0.5306E-19
  55718.624    0.4843E-19
  55718.696    0.4387E-19
  55718.769    0.4042E-19
  55718.841    0.3778E-19
  55718.913    0.3547E-19
  55718.985    0.3159E-19
  55719.058    0.2955E-19
  55719.130    0.2781E-19
  55719.202    0.2607E-19
  55719.275    0.2454E-19
  55719.347    0.2333E-19
  55719.419    0.2209E-19
  55719.491    0.2074E-19
  55719.564    0.1957E-19
  55719.636    0.1847E-19
  55719.708    0.1743E-19
  55719.781    0.1674E-19
  55719.853    0.1608E-19
  55719.925    0.1538E-19
  55719.998    0.1470E-19
  55720.070    0.1418E-19
  55720.142    0.1367E-19
  55720.214    0.1337E-19
  55720.287    0.1313E-19
  55720.359    0.1263E-19
  55720.431    0.1250E-19
  55720.504    0.1226E-19
  55720.576    0.1250E-19
  55720.648    0.1218E-19
  55720.720    0.1205E-19
  55720.793    0.1191E-19
  55720.865    0.1174E-19
  55720.937    0.1156E-19
  55721.010    0.1145E-19
  55721.082    0.1133E-19
  55721.154    0.1126E-19
  55721.227    0.1112E-19
  55721.299    0.1093E-19
  55721.371    0.1085E-19
  55721.443    0.1077E-19
  55721.516    0.1078E-19
  55721.588    0.1072E-19
  55721.660    0.1062E-19
  55721.733    0.1057E-19
  55721.805    0.1051E-19
  55721.877    0.1049E-19
  55721.950    0.1051E-19
  55722.022    0.1056E-19
  55722.094    0.1055E-19
  55722.166    0.1055E-19
  55722.239    0.1047E-19
  55722.311    0.1043E-19
  55722.383    0.1050E-19
  55722.456    0.1058E-19
  55722.528    0.1064E-19
  55722.600    0.1081E-19
  55722.673    0.1107E-19
  55722.745    0.1135E-19
  55722.817    0.1165E-19
  55722.889    0.1184E-19
  55722.962    0.1202E-19
  55723.034    0.1223E-19
  55723.106    0.1240E-19
  55723.179    0.1252E-19
  55723.251    0.1267E-19
  55723.323    0.1235E-19
  55723.396    0.1259E-19
  55723.468    0.1306E-19
  55723.540    0.1356E-19
  55723.613    0.1329E-19
  55723.685    0.1374E-19
  55723.757    0.1439E-19
  55723.829    0.1509E-19
  55723.902    0.1542E-19
  55723.974    0.1572E-19
  55724.046    0.1607E-19
  55724.119    0.1654E-19
  55724.191    0.1726E-19
  55724.263    0.1810E-19
  55724.336    0.1901E-19
  55724.408    0.1992E-19
  55724.480    0.2099E-19
  55724.553    0.2217E-19
  55724.625    0.2358E-19
  55724.697    0.2539E-19
  55724.769    0.2724E-19
  55724.842    0.2879E-19
  55724.914    0.3039E-19
  55724.986    0.3268E-19
  55725.059    0.3415E-19
  55725.131    0.3566E-19
  55725.203    0.3605E-19
  55725.276    0.3775E-19
  55725.348    0.3981E-19
  55725.420    0.4170E-19
  55725.493    0.4383E-19
  55725.565    0.4651E-19
  55725.637    0.4938E-19
  55725.709    0.5282E-19
  55725.782    0.5716E-19
  55725.854    0.6271E-19
  55725.926    0.6858E-19
  55725.999    0.7528E-19
  55726.071    0.8833E-19
  55726.143    0.9606E-19
  55726.216    0.1081E-18
  55726.288    0.1219E-18
  55726.360    0.1383E-18
  55726.433    0.1580E-18
  55726.505    0.1830E-18
  55726.577    0.2587E-18
  55726.650    0.3125E-18
  55726.722    0.3820E-18
  55726.794    0.4442E-18
  55726.866    0.5028E-18
  55726.939    0.5552E-18
  55727.011    0.6298E-18
  55727.083    0.6573E-18
  55727.156    0.6672E-18
  55727.228    0.6639E-18
  55727.300    0.6558E-18
  55727.373    0.6515E-18
  55727.445    0.6538E-18
  55727.517    0.6667E-18
  55727.590    0.6905E-18
  55727.662    0.7215E-18
  55727.734    0.7547E-18
  55727.807    0.7840E-18
  55727.879    0.7985E-18
  55727.951    0.7966E-18
  55728.024    0.7748E-18
  55728.096    0.7377E-18
  55728.168    0.6866E-18
  55728.240    0.6293E-18
  55728.313    0.5677E-18
  55728.385    0.4869E-18
  55728.457    0.4270E-18
  55728.530    0.3706E-18
  55728.602    0.3122E-18
  55728.674    0.2689E-18
  55728.747    0.2133E-18
  55728.819    0.1824E-18
  55728.891    0.1611E-18
  55728.964    0.1440E-18
  55729.036    0.1292E-18
  55729.108    0.1148E-18
  55729.181    0.1020E-18
  55729.253    0.9196E-19
  55729.325    0.8073E-19
  55729.398    0.7154E-19
  55729.470    0.6851E-19
  55729.542    0.6561E-19
  55729.615    0.6287E-19
  55729.687    0.6068E-19
  55729.759    0.5821E-19
  55729.832    0.5483E-19
  55729.904    0.5100E-19
  55729.976    0.4714E-19
  55730.049    0.4288E-19
  55730.121    0.3978E-19
  55730.193    0.3740E-19
  55730.265    0.3552E-19
  55730.338    0.3051E-19
  55730.410    0.2837E-19
  55730.482    0.2656E-19
  55730.555    0.2511E-19
  55730.627    0.2391E-19
  55730.699    0.2275E-19
  55730.772    0.2171E-19
  55730.844    0.2082E-19
  55730.916    0.1978E-19
  55730.989    0.1884E-19
  55731.061    0.1821E-19
  55731.133    0.1745E-19
  55731.206    0.1665E-19
  55731.278    0.1598E-19
  55731.350    0.1552E-19
  55731.423    0.1519E-19
  55731.495    0.1500E-19
  55731.567    0.1472E-19
  55731.640    0.1420E-19
  55731.712    0.1356E-19
  55731.784    0.1330E-19
  55731.857    0.1274E-19
  55731.929    0.1262E-19
  55732.001    0.1234E-19
  55732.074    0.1209E-19
  55732.146    0.1182E-19
  55732.218    0.1152E-19
  55732.291    0.1126E-19
  55732.363    0.1103E-19
  55732.435    0.1082E-19
  55732.508    0.1053E-19
  55732.580    0.1037E-19
  55732.652    0.1027E-19
  55732.725    0.1013E-19
  55732.797    0.1000E-19
  55732.869    0.9874E-20
  55732.942    0.9725E-20
  55733.014    0.9578E-20
  55733.086    0.9477E-20
  55733.159    0.9365E-20
  55733.231    0.9201E-20
  55733.303    0.8999E-20
  55733.376    0.8865E-20
  55733.448    0.8784E-20
  55733.520    0.8693E-20
  55733.593    0.8672E-20
  55733.665    0.8608E-20
  55733.737    0.8586E-20
  55733.810    0.8607E-20
  55733.882    0.8567E-20
  55733.954    0.8446E-20
  55734.027    0.8297E-20
  55734.099    0.8182E-20
  55734.171    0.8066E-20
  55734.244    0.8003E-20
  55734.316    0.7933E-20
  55734.388    0.7866E-20
  55734.461    0.7762E-20
  55734.533    0.7611E-20
  55734.605    0.7478E-20
  55734.678    0.7477E-20
  55734.750    0.7543E-20
  55734.822    0.7563E-20
  55734.895    0.7565E-20
  55734.967    0.7648E-20
  55735.039    0.7743E-20
  55735.112    0.7845E-20
  55735.184    0.7994E-20
  55735.256    0.8020E-20
  55735.329    0.7946E-20
  55735.401    0.7911E-20
  55735.473    0.7792E-20
  55735.546    0.7723E-20
  55735.618    0.7793E-20
  55735.690    0.7846E-20
  55735.763    0.7834E-20
  55735.835    0.7810E-20
  55735.907    0.7730E-20
  55735.980    0.7681E-20
  55736.052    0.7638E-20
  55736.124    0.7547E-20
  55736.197    0.7411E-20
  55736.269    0.7362E-20
  55736.342    0.7340E-20
  55736.414    0.7396E-20
  55736.486    0.7489E-20
  55736.559    0.7483E-20
  55736.631    0.7462E-20
  55736.703    0.7482E-20
  55736.776    0.7412E-20
  55736.848    0.7333E-20
  55736.920    0.7327E-20
  55736.993    0.7241E-20
  55737.065    0.7252E-20
  55737.137    0.7349E-20
  55737.210    0.7472E-20
  55737.282    0.7565E-20
  55737.354    0.7636E-20
  55737.427    0.7863E-20
  55737.499    0.8092E-20
  55737.571    0.8165E-20
  55737.644    0.8123E-20
  55737.716    0.8066E-20
  55737.788    0.8057E-20
  55737.861    0.8135E-20
  55737.933    0.8205E-20
  55738.005    0.8365E-20
  55738.078    0.8630E-20
  55738.150    0.8784E-20
  55738.222    0.8824E-20
  55738.295    0.8885E-20
  55738.367    0.9012E-20
  55738.440    0.9130E-20
  55738.512    0.9216E-20
  55738.584    0.9380E-20
  55738.657    0.9546E-20
  55738.729    0.9647E-20
  55738.801    0.9794E-20
  55738.874    0.9991E-20
  55738.946    0.1015E-19
  55739.018    0.1031E-19
  55739.091    0.1051E-19
  55739.163    0.1075E-19
  55739.235    0.1100E-19
  55739.308    0.1128E-19
  55739.380    0.1152E-19
  55739.452    0.1170E-19
  55739.525    0.1194E-19
  55739.597    0.1217E-19
  55739.669    0.1239E-19
  55739.742    0.1247E-19
  55739.814    0.1265E-19
  55739.887    0.1243E-19
  55739.959    0.1290E-19
  55740.031    0.1334E-19
  55740.104    0.1377E-19
  55740.176    0.1363E-19
  55740.248    0.1415E-19
  55740.321    0.1466E-19
  55740.393    0.1503E-19
  55740.465    0.1531E-19
  55740.538    0.1574E-19
  55740.610    0.1637E-19
  55740.682    0.1695E-19
  55740.755    0.1752E-19
  55740.827    0.1823E-19
  55740.900    0.1894E-19
  55740.972    0.1984E-19
  55741.044    0.2082E-19
  55741.117    0.2184E-19
  55741.189    0.2300E-19
  55741.261    0.2400E-19
  55741.334    0.2493E-19
  55741.406    0.2615E-19
  55741.478    0.2734E-19
  55741.551    0.2850E-19
  55741.623    0.3018E-19
  55741.695    0.3224E-19
  55741.768    0.3434E-19
  55741.840    0.3653E-19
  55741.913    0.3922E-19
  55741.985    0.4191E-19
  55742.057    0.4443E-19
  55742.130    0.4792E-19
  55742.202    0.5247E-19
  55742.274    0.5746E-19
  55742.347    0.6208E-19
  55742.419    0.6739E-19
  55742.491    0.7347E-19
  55742.564    0.8357E-19
  55742.636    0.9332E-19
  55742.708    0.1036E-18
  55742.781    0.1152E-18
  55742.853    0.1303E-18
  55742.926    0.1490E-18
  55742.998    0.1707E-18
  55743.070    0.1952E-18
  55743.143    0.2522E-18
  55743.215    0.3098E-18
  55743.287    0.3874E-18
  55743.360    0.4529E-18
  55743.432    0.5178E-18
  55743.504    0.6201E-18
  55743.577    0.6703E-18
  55743.649    0.7013E-18
  55743.722    0.7097E-18
  55743.794    0.7027E-18
  55743.866    0.6915E-18
  55743.939    0.6817E-18
  55744.011    0.6794E-18
  55744.083    0.6740E-18
  55744.156    0.6757E-18
  55744.228    0.6938E-18
  55744.300    0.7195E-18
  55744.373    0.7499E-18
  55744.445    0.7817E-18
  55744.518    0.8029E-18
  55744.590    0.8197E-18
  55744.662    0.8277E-18
  55744.735    0.8213E-18
  55744.807    0.7949E-18
  55744.879    0.7500E-18
  55744.952    0.6958E-18
  55745.024    0.6330E-18
  55745.096    0.5713E-18
  55745.169    0.5036E-18
  55745.241    0.4492E-18
  55745.314    0.4005E-18
  55745.386    0.3517E-18
  55745.458    0.3099E-18
  55745.531    0.2706E-18
  55745.603    0.2141E-18
  55745.675    0.1837E-18
  55745.748    0.1635E-18
  55745.820    0.1460E-18
  55745.893    0.1311E-18
  55745.965    0.1192E-18
  55746.037    0.1097E-18
  55746.110    0.1022E-18
  55746.182    0.9563E-19
  55746.254    0.8408E-19
  55746.327    0.7364E-19
  55746.399    0.6980E-19
  55746.472    0.6585E-19
  55746.544    0.6240E-19
  55746.616    0.5904E-19
  55746.689    0.5562E-19
  55746.761    0.5280E-19
  55746.833    0.5026E-19
  55746.906    0.4757E-19
  55746.978    0.4491E-19
  55747.051    0.4228E-19
  55747.123    0.3996E-19
  55747.195    0.3782E-19
  55747.268    0.3589E-19
  55747.340    0.3442E-19
  55747.412    0.3336E-19
  55747.485    0.3232E-19
  55747.557    0.3117E-19
  55747.629    0.3031E-19
  55747.702    0.3061E-19
  55747.774    0.3008E-19
  55747.847    0.2968E-19
  55747.919    0.2964E-19
  55747.991    0.2932E-19
  55748.064    0.2911E-19
  55748.136    0.2897E-19
  55748.209    0.2889E-19
  55748.281    0.2891E-19
  55748.353    0.2881E-19
  55748.426    0.2861E-19
  55748.498    0.2838E-19
  55748.570    0.2845E-19
  55748.643    0.2865E-19
  55748.715    0.2892E-19
  55748.788    0.2933E-19
  55748.860    0.2989E-19
  55748.932    0.3039E-19
  55749.005    0.3050E-19
  55749.077    0.3163E-19
  55749.149    0.3285E-19
  55749.222    0.3419E-19
  55749.294    0.3617E-19
  55749.367    0.3872E-19
  55749.439    0.4099E-19
  55749.511    0.4314E-19
  55749.584    0.4538E-19
  55749.656    0.4783E-19
  55749.728    0.5099E-19
  55749.801    0.5479E-19
  55749.873    0.5866E-19
  55749.946    0.6172E-19
  55750.018    0.6425E-19
  55750.090    0.6567E-19
  55750.163    0.6722E-19
  55750.235    0.6826E-19
  55750.308    0.6978E-19
  55750.380    0.7122E-19
  55750.452    0.7288E-19
  55750.525    0.7571E-19
  55750.597    0.7803E-19
  55750.669    0.8228E-19
  55750.742    0.8756E-19
  55750.814    0.9459E-19
  55750.887    0.1031E-18
  55750.959    0.1122E-18
  55751.031    0.1237E-18
  55751.104    0.1373E-18
  55751.176    0.1533E-18
  55751.249    0.1706E-18
  55751.321    0.2046E-18
  55751.393    0.2594E-18
  55751.466    0.3053E-18
  55751.538    0.3879E-18
  55751.610    0.4567E-18
  55751.683    0.5347E-18
  55751.755    0.6741E-18
  55751.828    0.7661E-18
  55751.900    0.8486E-18
  55751.972    0.9168E-18
  55752.045    0.9667E-18
  55752.117    0.9938E-18
  55752.190    0.1004E-17
  55752.262    0.1002E-17
  55752.334    0.9984E-18
  55752.407    0.1002E-17
  55752.479    0.1017E-17
  55752.552    0.1047E-17
  55752.624    0.1084E-17
  55752.696    0.1113E-17
  55752.769    0.1133E-17
  55752.841    0.1140E-17
  55752.913    0.1123E-17
  55752.986    0.1085E-17
  55753.058    0.1025E-17
  55753.131    0.9464E-18
  55753.203    0.8572E-18
  55753.275    0.7632E-18
  55753.348    0.6689E-18
  55753.420    0.5533E-18
  55753.493    0.4789E-18
  55753.565    0.4129E-18
  55753.637    0.3484E-18
  55753.710    0.3032E-18
  55753.782    0.2628E-18
  55753.855    0.2155E-18
  55753.927    0.1832E-18
  55753.999    0.1662E-18
  55754.072    0.1524E-18
  55754.144    0.1409E-18
  55754.217    0.1322E-18
  55754.289    0.1244E-18
  55754.361    0.1178E-18
  55754.434    0.1124E-18
  55754.506    0.1067E-18
  55754.579    0.1033E-18
  55754.651    0.1010E-18
  55754.723    0.9714E-19
  55754.796    0.9342E-19
  55754.868    0.8910E-19
  55754.940    0.7719E-19
  55755.013    0.7144E-19
  55755.085    0.6658E-19
  55755.158    0.6241E-19
  55755.230    0.5844E-19
  55755.302    0.5405E-19
  55755.375    0.4975E-19
  55755.447    0.4561E-19
  55755.520    0.4233E-19
  55755.592    0.3961E-19
  55755.664    0.3776E-19
  55755.737    0.3618E-19
  55755.809    0.3293E-19
  55755.882    0.3116E-19
  55755.954    0.3058E-19
  55756.026    0.2950E-19
  55756.099    0.2845E-19
  55756.171    0.2754E-19
  55756.244    0.2652E-19
  55756.316    0.2559E-19
  55756.388    0.2467E-19
  55756.461    0.2380E-19
  55756.533    0.2298E-19
  55756.606    0.2227E-19
  55756.678    0.2170E-19
  55756.750    0.2113E-19
  55756.823    0.2059E-19
  55756.895    0.2019E-19
  55756.968    0.1992E-19
  55757.040    0.1966E-19
  55757.112    0.1949E-19
  55757.185    0.1937E-19
  55757.257    0.1934E-19
  55757.330    0.1917E-19
  55757.402    0.1867E-19
  55757.474    0.1814E-19
  55757.547    0.1762E-19
  55757.619    0.1731E-19
  55757.692    0.1727E-19
  55757.764    0.1739E-19
  55757.837    0.1741E-19
  55757.909    0.1747E-19
  55757.981    0.1730E-19
  55758.054    0.1712E-19
  55758.126    0.1716E-19
  55758.199    0.1723E-19
  55758.271    0.1731E-19
  55758.343    0.1744E-19
  55758.416    0.1735E-19
  55758.488    0.1724E-19
  55758.561    0.1715E-19
  55758.633    0.1715E-19
  55758.705    0.1720E-19
  55758.778    0.1728E-19
  55758.850    0.1716E-19
  55758.923    0.1714E-19
  55758.995    0.1728E-19
  55759.067    0.1750E-19
  55759.140    0.1779E-19
  55759.212    0.1806E-19
  55759.285    0.1825E-19
  55759.357    0.1816E-19
  55759.429    0.1808E-19
  55759.502    0.1802E-19
  55759.574    0.1808E-19
  55759.647    0.1793E-19
  55759.719    0.1796E-19
  55759.792    0.1828E-19
  55759.864    0.1845E-19
  55759.936    0.1865E-19
  55760.009    0.1896E-19
  55760.081    0.1927E-19
  55760.154    0.1961E-19
  55760.226    0.2009E-19
  55760.298    0.2074E-19
  55760.371    0.2147E-19
  55760.443    0.2206E-19
  55760.516    0.2263E-19
  55760.588    0.2322E-19
  55760.660    0.2363E-19
  55760.733    0.2404E-19
  55760.805    0.2482E-19
  55760.878    0.2571E-19
  55760.950    0.2636E-19
  55761.023    0.2697E-19
  55761.095    0.2769E-19
  55761.167    0.2833E-19
  55761.240    0.2899E-19
  55761.312    0.2994E-19
  55761.385    0.3097E-19
  55761.457    0.3164E-19
  55761.529    0.3294E-19
  55761.602    0.3538E-19
  55761.674    0.3665E-19
  55761.747    0.3748E-19
  55761.819    0.3829E-19
  55761.892    0.3945E-19
  55761.964    0.4123E-19
  55762.036    0.4349E-19
  55762.109    0.4566E-19
  55762.181    0.4756E-19
  55762.254    0.4978E-19
  55762.326    0.5289E-19
  55762.398    0.5621E-19
  55762.471    0.6028E-19
  55762.543    0.6480E-19
  55762.616    0.7009E-19
  55762.688    0.7585E-19
  55762.761    0.9082E-19
  55762.833    0.9814E-19
  55762.905    0.1060E-18
  55762.978    0.1165E-18
  55763.050    0.1283E-18
  55763.123    0.1425E-18
  55763.195    0.1584E-18
  55763.267    0.1762E-18
  55763.340    0.1969E-18
  55763.412    0.2400E-18
  55763.485    0.2674E-18
  55763.557    0.3003E-18
  55763.630    0.3470E-18
  55763.702    0.4097E-18
  55763.774    0.4829E-18
  55763.847    0.6023E-18
  55763.919    0.7160E-18
  55763.992    0.8243E-18
  55764.064    0.9249E-18
  55764.137    0.1007E-17
  55764.209    0.1054E-17
  55764.281    0.1076E-17
  55764.354    0.1073E-17
  55764.426    0.1060E-17
  55764.499    0.1047E-17
  55764.571    0.1041E-17
  55764.644    0.1051E-17
  55764.716    0.1067E-17
  55764.788    0.1106E-17
  55764.861    0.1159E-17
  55764.933    0.1217E-17
  55765.006    0.1267E-17
  55765.078    0.1301E-17
  55765.151    0.1307E-17
  55765.223    0.1280E-17
  55765.295    0.1229E-17
  55765.368    0.1152E-17
  55765.440    0.1054E-17
  55765.513    0.9439E-18
  55765.585    0.8352E-18
  55765.658    0.7330E-18
  55765.730    0.6446E-18
  55765.802    0.5390E-18
  55765.875    0.4772E-18
  55765.947    0.4260E-18
  55766.020    0.3791E-18
  55766.092    0.3315E-18
  55766.165    0.3033E-18
  55766.237    0.2813E-18
  55766.309    0.2707E-18
  55766.382    0.2580E-18
  55766.454    0.2456E-18
  55766.527    0.2315E-18
  55766.599    0.2039E-18
  55766.672    0.1912E-18
  55766.744    0.1799E-18
  55766.816    0.1680E-18
  55766.889    0.1587E-18
  55766.961    0.1485E-18
  55767.034    0.1397E-18
  55767.106    0.1320E-18
  55767.179    0.1246E-18
  55767.251    0.1201E-18
  55767.323    0.1159E-18
  55767.396    0.1128E-18
  55767.468    0.1111E-18
  55767.541    0.1099E-18
  55767.613    0.1117E-18
  55767.686    0.1131E-18
  55767.758    0.1152E-18
  55767.830    0.1174E-18
  55767.903    0.1179E-18
  55767.975    0.1174E-18
  55768.048    0.1163E-18
  55768.120    0.1147E-18
  55768.193    0.1136E-18
  55768.265    0.1138E-18
  55768.337    0.1133E-18
  55768.410    0.1124E-18
  55768.482    0.1133E-18
  55768.555    0.1134E-18
  55768.627    0.1163E-18
  55768.700    0.1222E-18
  55768.772    0.1313E-18
  55768.845    0.1438E-18
  55768.917    0.1587E-18
  55768.989    0.1772E-18
  55769.062    0.1977E-18
  55769.134    0.2379E-18
  55769.207    0.2732E-18
  55769.279    0.3120E-18
  55769.352    0.3696E-18
  55769.424    0.4362E-18
  55769.496    0.5149E-18
  55769.569    0.6310E-18
  55769.641    0.7236E-18
  55769.714    0.8077E-18
  55769.786    0.8788E-18
  55769.859    0.9372E-18
  55769.931    0.9716E-18
  55770.004    0.9710E-18
  55770.076    0.9543E-18
  55770.148    0.9300E-18
  55770.221    0.9127E-18
  55770.293    0.9095E-18
  55770.366    0.9136E-18
  55770.438    0.9135E-18
  55770.511    0.9111E-18
  55770.583    0.9041E-18
  55770.656    0.8891E-18
  55770.728    0.8658E-18
  55770.800    0.8335E-18
  55770.873    0.7968E-18
  55770.945    0.7581E-18
  55771.018    0.7184E-18
  55771.090    0.6739E-18
  55771.163    0.6229E-18
  55771.235    0.5688E-18
  55771.308    0.4968E-18
  55771.380    0.4458E-18
  55771.452    0.3947E-18
  55771.525    0.3370E-18
  55771.597    0.2961E-18
  55771.670    0.2301E-18
  55771.742    0.2087E-18
  55771.815    0.1828E-18
  55771.887    0.1707E-18
  55771.960    0.1608E-18
  55772.032    0.1541E-18
  55772.104    0.1492E-18
  55772.177    0.1472E-18
  55772.249    0.1475E-18
  55772.322    0.1499E-18
  55772.394    0.1551E-18
  55772.467    0.1605E-18
  55772.539    0.1640E-18
  55772.612    0.1637E-18
  55772.684    0.1586E-18
  55772.756    0.1500E-18
  55772.829    0.1414E-18
  55772.901    0.1317E-18
  55772.974    0.1221E-18
  55773.046    0.1133E-18
  55773.119    0.1046E-18
  55773.191    0.9674E-19
  55773.264    0.8399E-19
  55773.336    0.7240E-19
  55773.408    0.6741E-19
  55773.481    0.6296E-19
  55773.553    0.5874E-19
  55773.626    0.5562E-19
  55773.698    0.5304E-19
  55773.771    0.5111E-19
  55773.843    0.4936E-19
  55773.916    0.4786E-19
  55773.988    0.4748E-19
  55774.061    0.4722E-19
  55774.133    0.4665E-19
  55774.205    0.4638E-19
  55774.278    0.4640E-19
  55774.350    0.4628E-19
  55774.423    0.4613E-19
  55774.495    0.4584E-19
  55774.568    0.4613E-19
  55774.640    0.4633E-19
  55774.713    0.4700E-19
  55774.785    0.4773E-19
  55774.858    0.4867E-19
  55774.930    0.4940E-19
  55775.002    0.5054E-19
  55775.075    0.5156E-19
  55775.147    0.5224E-19
  55775.220    0.5395E-19
  55775.292    0.5621E-19
  55775.365    0.5786E-19
  55775.437    0.5955E-19
  55775.510    0.6126E-19
  55775.582    0.6314E-19
  55775.655    0.6591E-19
  55775.727    0.6904E-19
  55775.799    0.7233E-19
  55775.872    0.7603E-19
  55775.944    0.8206E-19
  55776.017    0.8740E-19
  55776.089    0.9117E-19
  55776.162    0.9740E-19
  55776.234    0.1052E-18
  55776.307    0.1159E-18
  55776.379    0.1270E-18
  55776.452    0.1399E-18
  55776.524    0.1549E-18
  55776.597    0.1731E-18
  55776.669    0.1940E-18
  55776.741    0.2282E-18
  55776.814    0.2517E-18
  55776.886    0.2725E-18
  55776.959    0.2987E-18
  55777.031    0.3283E-18
  55777.104    0.3608E-18
  55777.176    0.3994E-18
  55777.249    0.4528E-18
  55777.321    0.5132E-18
  55777.394    0.6086E-18
  55777.466    0.6995E-18
  55777.539    0.8017E-18
  55777.611    0.9097E-18
  55777.683    0.1012E-17
  55777.756    0.1099E-17
  55777.828    0.1174E-17
  55777.901    0.1223E-17
  55777.973    0.1238E-17
  55778.046    0.1228E-17
  55778.118    0.1217E-17
  55778.191    0.1210E-17
  55778.263    0.1218E-17
  55778.336    0.1249E-17
  55778.408    0.1298E-17
  55778.481    0.1348E-17
  55778.553    0.1381E-17
  55778.625    0.1397E-17
  55778.698    0.1398E-17
  55778.770    0.1372E-17
  55778.843    0.1309E-17
  55778.915    0.1231E-17
  55778.988    0.1132E-17
  55779.060    0.1022E-17
  55779.133    0.9046E-18
  55779.205    0.7879E-18
  55779.278    0.6837E-18
  55779.350    0.5924E-18
  55779.423    0.5022E-18
  55779.495    0.4515E-18
  55779.568    0.4115E-18
  55779.640    0.3803E-18
  55779.712    0.3534E-18
  55779.785    0.3165E-18
  55779.857    0.3046E-18
  55779.930    0.3003E-18
  55780.002    0.3043E-18
  55780.075    0.3145E-18
  55780.147    0.3299E-18
  55780.220    0.3519E-18
  55780.292    0.3860E-18
  55780.365    0.4207E-18
  55780.437    0.4598E-18
  55780.510    0.5006E-18
  55780.582    0.5314E-18
  55780.655    0.5616E-18
  55780.727    0.5622E-18
  55780.800    0.5343E-18
  55780.872    0.5097E-18
  55780.944    0.4736E-18
  55781.017    0.4293E-18
  55781.089    0.3825E-18
  55781.162    0.3289E-18
  55781.234    0.2918E-18
  55781.307    0.2574E-18
  55781.379    0.2145E-18
  55781.452    0.1852E-18
  55781.524    0.1743E-18
  55781.597    0.1641E-18
  55781.669    0.1551E-18
  55781.742    0.1497E-18
  55781.814    0.1476E-18
  55781.887    0.1480E-18
  55781.959    0.1494E-18
  55782.032    0.1530E-18
  55782.104    0.1602E-18
  55782.177    0.1700E-18
  55782.249    0.1817E-18
  55782.322    0.1968E-18
  55782.394    0.2249E-18
  55782.466    0.2500E-18
  55782.539    0.2773E-18
  55782.611    0.3070E-18
  55782.684    0.3377E-18
  55782.756    0.3679E-18
  55782.829    0.3992E-18
  55782.901    0.4194E-18
  55782.974    0.4326E-18
  55783.046    0.4434E-18
  55783.119    0.4568E-18
  55783.191    0.4726E-18
  55783.264    0.4900E-18
  55783.336    0.5113E-18
  55783.409    0.5433E-18
  55783.481    0.5692E-18
  55783.554    0.5968E-18
  55783.626    0.6235E-18
  55783.699    0.6426E-18
  55783.771    0.6698E-18
  55783.844    0.7020E-18
  55783.916    0.7344E-18
  55783.989    0.7790E-18
  55784.061    0.8245E-18
  55784.133    0.8761E-18
  55784.206    0.9265E-18
  55784.278    0.9672E-18
  55784.351    0.9830E-18
  55784.423    0.9780E-18
  55784.496    0.9508E-18
  55784.568    0.9066E-18
  55784.641    0.8653E-18
  55784.713    0.8195E-18
  55784.786    0.7765E-18
  55784.858    0.7402E-18
  55784.931    0.7092E-18
  55785.003    0.6810E-18
  55785.076    0.6539E-18
  55785.148    0.6277E-18
  55785.221    0.6006E-18
  55785.293    0.5703E-18
  55785.366    0.5238E-18
  55785.438    0.4814E-18
  55785.511    0.4343E-18
  55785.583    0.3835E-18
  55785.656    0.3198E-18
  55785.728    0.2810E-18
  55785.801    0.2195E-18
  55785.873    0.1813E-18
  55785.946    0.1653E-18
  55786.018    0.1503E-18
  55786.091    0.1381E-18
  55786.163    0.1291E-18
  55786.236    0.1213E-18
  55786.308    0.1173E-18
  55786.381    0.1176E-18
  55786.453    0.1206E-18
  55786.526    0.1255E-18
  55786.598    0.1330E-18
  55786.670    0.1419E-18
  55786.743    0.1499E-18
  55786.815    0.1570E-18
  55786.888    0.1626E-18
  55786.960    0.1675E-18
  55787.033    0.1705E-18
  55787.105    0.1691E-18
  55787.178    0.1635E-18
  55787.250    0.1564E-18
  55787.323    0.1489E-18
  55787.395    0.1401E-18
  55787.468    0.1300E-18
  55787.540    0.1198E-18
  55787.613    0.1095E-18
  55787.685    0.9974E-19
  55787.758    0.8252E-19
  55787.830    0.6620E-19
  55787.903    0.5951E-19
  55787.975    0.5338E-19
  55788.048    0.4883E-19
  55788.120    0.4497E-19
  55788.193    0.4131E-19
  55788.265    0.3842E-19
  55788.338    0.3573E-19
  55788.410    0.3232E-19
  55788.483    0.3020E-19
  55788.555    0.2837E-19
  55788.628    0.2677E-19
  55788.700    0.2524E-19
  55788.773    0.2375E-19
  55788.845    0.2251E-19
  55788.918    0.2129E-19
  55788.990    0.2033E-19
  55789.063    0.1970E-19
  55789.135    0.1909E-19
  55789.208    0.1860E-19
  55789.280    0.1799E-19
  55789.353    0.1729E-19
  55789.425    0.1679E-19
  55789.498    0.1650E-19
  55789.570    0.1613E-19
  55789.643    0.1579E-19
  55789.715    0.1548E-19
  55789.788    0.1522E-19
  55789.860    0.1493E-19
  55789.933    0.1468E-19
  55790.005    0.1457E-19
  55790.078    0.1461E-19
  55790.150    0.1458E-19
  55790.223    0.1452E-19
  55790.295    0.1456E-19
  55790.368    0.1476E-19
  55790.440    0.1505E-19
  55790.513    0.1559E-19
  55790.585    0.1615E-19
  55790.658    0.1660E-19
  55790.730    0.1728E-19
  55790.803    0.1784E-19
  55790.875    0.1832E-19
  55790.948    0.1849E-19
  55791.020    0.1856E-19
  55791.093    0.1869E-19
  55791.165    0.1844E-19
  55791.238    0.1789E-19
  55791.310    0.1719E-19
  55791.383    0.1633E-19
  55791.455    0.1562E-19
  55791.528    0.1496E-19
  55791.600    0.1426E-19
  55791.673    0.1350E-19
  55791.745    0.1324E-19
  55791.818    0.1268E-19
  55791.890    0.1236E-19
  55791.963    0.1201E-19
  55792.035    0.1180E-19
  55792.108    0.1171E-19
  55792.180    0.1181E-19
  55792.253    0.1202E-19
  55792.325    0.1238E-19
  55792.398    0.1282E-19
  55792.470    0.1350E-19
  55792.543    0.1404E-19
  55792.615    0.1524E-19
  55792.688    0.1645E-19
  55792.760    0.1758E-19
  55792.833    0.1867E-19
  55792.905    0.1935E-19
  55792.978    0.1951E-19
  55793.050    0.1925E-19
  55793.123    0.1853E-19
  55793.195    0.1743E-19
  55793.268    0.1610E-19
  55793.340    0.1467E-19
  55793.413    0.1332E-19
  55793.485    0.1206E-19
  55793.558    0.1135E-19
  55793.630    0.1080E-19
  55793.703    0.1013E-19
  55793.775    0.9583E-20
  55793.848    0.9093E-20
  55793.920    0.8668E-20
  55793.993    0.8285E-20
  55794.065    0.7983E-20
  55794.138    0.7816E-20
  55794.211    0.7627E-20
  55794.283    0.7454E-20
  55794.356    0.7230E-20
  55794.428    0.6916E-20
  55794.501    0.6653E-20
  55794.573    0.6537E-20
  55794.646    0.6485E-20
  55794.718    0.6409E-20
  55794.791    0.6362E-20
  55794.863    0.6295E-20
  55794.936    0.6200E-20
  55795.008    0.6148E-20
  55795.081    0.6134E-20
  55795.153    0.6080E-20
  55795.226    0.5861E-20
  55795.298    0.5612E-20
  55795.371    0.5480E-20
  55795.443    0.5431E-20
  55795.516    0.5414E-20
  55795.588    0.5423E-20
  55795.661    0.5384E-20
  55795.733    0.5311E-20
  55795.806    0.5182E-20
  55795.878    0.5090E-20
  55795.951    0.5055E-20
  55796.023    0.5020E-20
  55796.096    0.4951E-20
  55796.168    0.4894E-20
  55796.241    0.4883E-20
  55796.313    0.4860E-20
  55796.386    0.4804E-20
  55796.458    0.4704E-20
  55796.531    0.4616E-20
  55796.604    0.4615E-20
  55796.676    0.4615E-20
  55796.749    0.4583E-20
  55796.821    0.4539E-20
  55796.894    0.4528E-20
  55796.966    0.4474E-20
  55797.039    0.4410E-20
  55797.111    0.4347E-20
  55797.184    0.4315E-20
  55797.256    0.4201E-20
  55797.329    0.4069E-20
  55797.401    0.4008E-20
  55797.474    0.3938E-20
  55797.546    0.3958E-20
  55797.619    0.4008E-20
  55797.691    0.4108E-20
  55797.764    0.4139E-20
  55797.836    0.4078E-20
  55797.909    0.4037E-20
  55797.981    0.4067E-20
  55798.054    0.4128E-20
  55798.126    0.4159E-20
  55798.199    0.4138E-20
  55798.271    0.4047E-20
  55798.344    0.3917E-20
  55798.417    0.3838E-20
  55798.489    0.3818E-20
  55798.562    0.3799E-20
  55798.634    0.3731E-20
  55798.707    0.3693E-20
  55798.779    0.3731E-20
  55798.852    0.3779E-20
  55798.924    0.3837E-20
  55798.997    0.3827E-20
  55799.069    0.3778E-20
  55799.142    0.3711E-20
  55799.214    0.3653E-20
  55799.287    0.3625E-20
  55799.359    0.3558E-20
  55799.432    0.3465E-20
  55799.504    0.3400E-20
  55799.577    0.3373E-20
  55799.649    0.3382E-20
  55799.722    0.3391E-20
  55799.795    0.3372E-20
  55799.867    0.3345E-20
  55799.940    0.3363E-20
  55800.012    0.3418E-20
  55800.085    0.3510E-20
  55800.157    0.3576E-20
  55800.230    0.3557E-20
  55800.302    0.3463E-20
  55800.375    0.3325E-20
  55800.447    0.3226E-20
  55800.520    0.3172E-20
  55800.592    0.3084E-20
  55800.665    0.2988E-20
  55800.737    0.2944E-20
  55800.810    0.2970E-20
  55800.882    0.3048E-20
  55800.955    0.3065E-20
  55801.028    0.3057E-20
  55801.100    0.3100E-20
  55801.173    0.3100E-20
  55801.245    0.3065E-20
  55801.318    0.2986E-20
  55801.390    0.2926E-20
  55801.463    0.2943E-20
  55801.535    0.2995E-20
  55801.608    0.3047E-20
  55801.680    0.3082E-20
  55801.753    0.3073E-20
  55801.825    0.2985E-20
  55801.898    0.2873E-20
  55801.970    0.2763E-20
  55802.043    0.2680E-20
  55802.115    0.2688E-20
  55802.188    0.2688E-20
  55802.261    0.2663E-20
  55802.333    0.2687E-20
  55802.406    0.2737E-20
  55802.478    0.2745E-20
  55802.551    0.2771E-20
  55802.623    0.2754E-20
  55802.696    0.2762E-20
  55802.768    0.2779E-20
  55802.841    0.2804E-20
  55802.913    0.2812E-20
  55802.986    0.2812E-20
  55803.058    0.2761E-20
  55803.131    0.2669E-20
  55803.204    0.2619E-20
  55803.276    0.2595E-20
  55803.349    0.2595E-20
  55803.421    0.2570E-20
  55803.494    0.2513E-20
  55803.566    0.2416E-20
  55803.639    0.2392E-20
  55803.711    0.2456E-20
  55803.784    0.2512E-20
  55803.856    0.2504E-20
  55803.929    0.2496E-20
  55804.001    0.2455E-20
  55804.074    0.2431E-20
  55804.147    0.2415E-20
  55804.219    0.2391E-20
  55804.292    0.2399E-20
  55804.364    0.2367E-20
  55804.437    0.2303E-20
  55804.509    0.2303E-20
  55804.582    0.2311E-20
  55804.654    0.2311E-20
  55804.727    0.2326E-20
  55804.799    0.2342E-20
  55804.872    0.2302E-20
  55804.944    0.2318E-20
  55805.017    0.2310E-20
  55805.090    0.2278E-20
  55805.162    0.2286E-20
  55805.235    0.2341E-20
  55805.307    0.2349E-20
  55805.380    0.2357E-20
  55805.452    0.2349E-20
  55805.525    0.2317E-20
  55805.597    0.2254E-20
  55805.670    0.2199E-20
  55805.742    0.2160E-20
  55805.815    0.2145E-20
  55805.888    0.2152E-20
  55805.960    0.2168E-20
  55806.033    0.2198E-20
  55806.105    0.2183E-20
  55806.178    0.2214E-20
  55806.250    0.2229E-20
  55806.323    0.2229E-20
  55806.395    0.2244E-20
  55806.468    0.2236E-20
  55806.540    0.2197E-20
  55806.613    0.2143E-20
  55806.686    0.2197E-20
  55806.758    0.2275E-20
  55806.831    0.2236E-20
  55806.903    0.2197E-20
  55806.976    0.2127E-20
  55807.048    0.2050E-20
  55807.121    0.2043E-20
  55807.193    0.2058E-20
  55807.266    0.2050E-20
  55807.339    0.1989E-20
  55807.411    0.1907E-20
  55807.484    0.1840E-20
  55807.556    0.1788E-20
  55807.629    0.1795E-20
  55807.701    0.1854E-20
  55807.774    0.1906E-20
  55807.846    0.1913E-20
  55807.919    0.1869E-20
  55807.991    0.1846E-20
  55808.064    0.1802E-20
  55808.137    0.1780E-20
  55808.209    0.1787E-20
  55808.282    0.1831E-20
  55808.354    0.1897E-20
  55808.427    0.1927E-20
  55808.499    0.1897E-20
  55808.572    0.1875E-20
  55808.644    0.1897E-20
  55808.717    0.1867E-20
  55808.790    0.1882E-20
  55808.862    0.1874E-20
  55808.935    0.1859E-20
  55809.007    0.1866E-20
  55809.080    0.1881E-20
  55809.152    0.1963E-20
  55809.225    0.1978E-20
  55809.297    0.1940E-20
  55809.370    0.1918E-20
  55809.443    0.1888E-20
  55809.515    0.1858E-20
  55809.588    0.1814E-20
  55809.660    0.1769E-20
  55809.733    0.1718E-20
  55809.805    0.1646E-20
  55809.878    0.1660E-20
  55809.950    0.1718E-20
  55810.023    0.1747E-20
  55810.096    0.1791E-20
  55810.168    0.1827E-20
  55810.241    0.1834E-20
  55810.313    0.1812E-20
  55810.386    0.1819E-20
  55810.458    0.1827E-20
  55810.531    0.1797E-20
  55810.603    0.1797E-20
  55810.676    0.1775E-20
  55810.749    0.1738E-20
  55810.821    0.1716E-20
  55810.894    0.1673E-20
  55810.966    0.1665E-20
  55811.039    0.1694E-20
  55811.111    0.1687E-20
  55811.184    0.1672E-20
  55811.257    0.1650E-20
  55811.329    0.1657E-20
  55811.402    0.1657E-20
  55811.474    0.1657E-20
  55811.547    0.1664E-20
  55811.619    0.1678E-20
  55811.692    0.1664E-20
  55811.764    0.1621E-20
  55811.837    0.1585E-20
  55811.910    0.1592E-20
  55811.982    0.1606E-20
  55812.055    0.1570E-20
  55812.127    0.1556E-20
  55812.200    0.1527E-20
  55812.272    0.1541E-20
  55812.345    0.1577E-20
  55812.418    0.1598E-20
  55812.490    0.1591E-20
  55812.563    0.1598E-20
  55812.635    0.1583E-20
  55812.708    0.1590E-20
  55812.780    0.1604E-20
  55812.853    0.1576E-20
  55812.925    0.1561E-20
  55812.998    0.1575E-20
  55813.071    0.1604E-20
  55813.143    0.1625E-20
  55813.216    0.1575E-20
  55813.288    0.1483E-20
  55813.361    0.1434E-20
  55813.433    0.1406E-20
  55813.506    0.1378E-20
  55813.579    0.1350E-20
  55813.651    0.1357E-20
  55813.724    0.1364E-20
  55813.796    0.1384E-20
  55813.869    0.1419E-20
  55813.941    0.1419E-20
  55814.014    0.1425E-20
  55814.087    0.1397E-20
  55814.159    0.1397E-20
  55814.232    0.1460E-20
  55814.304    0.1523E-20
  55814.377    0.1523E-20
  55814.449    0.1537E-20
  55814.522    0.1502E-20
  55814.595    0.1438E-20
  55814.667    0.1396E-20
  55814.740    0.1348E-20
  55814.812    0.1355E-20
  55814.885    0.1375E-20
  55814.957    0.1417E-20
  55815.030    0.1479E-20
  55815.103    0.1507E-20
  55815.175    0.1486E-20
  55815.248    0.1388E-20
  55815.320    0.1292E-20
  55815.393    0.1183E-20
  55815.465    0.1149E-20
  55815.538    0.1189E-20
  55815.611    0.1250E-20
  55815.683    0.1284E-20
  55815.756    0.1263E-20
  55815.828    0.1250E-20
  55815.901    0.1263E-20
  55815.973    0.1284E-20
  55816.046    0.1297E-20
  55816.119    0.1304E-20
  55816.191    0.1297E-20
  55816.264    0.1283E-20
  55816.336    0.1303E-20
  55816.409    0.1344E-20
  55816.481    0.1400E-20
  55816.554    0.1393E-20
  55816.627    0.1351E-20
  55816.699    0.1337E-20
  55816.772    0.1330E-20
  55816.844    0.1316E-20
  55816.917    0.1316E-20
  55816.989    0.1336E-20
  55817.062    0.1343E-20
  55817.135    0.1302E-20
  55817.207    0.1267E-20
  55817.280    0.1302E-20
  55817.352    0.1301E-20
  55817.425    0.1267E-20
  55817.498    0.1226E-20
  55817.570    0.1199E-20
  55817.643    0.1192E-20
  55817.715    0.1205E-20
  55817.788    0.1212E-20
  55817.860    0.1219E-20
  55817.933    0.1164E-20
  55818.006    0.1097E-20
  55818.078    0.1084E-20
  55818.151    0.1044E-20
  55818.223    0.1050E-20
  55818.296    0.1077E-20
  55818.369    0.1164E-20
  55818.441    0.1258E-20
  55818.514    0.1279E-20
  55818.586    0.1238E-20
  55818.659    0.1176E-20
  55818.731    0.1149E-20
  55818.804    0.1190E-20
  55818.877    0.1278E-20
  55818.949    0.1416E-20
  55819.022    0.1549E-20
  55819.094    0.1606E-20
  55819.167    0.1620E-20
  55819.240    0.1528E-20
  55819.312    0.1380E-20
  55819.385    0.1250E-20
  55819.457    0.1168E-20
  55819.530    0.1175E-20
  55819.602    0.1175E-20
  55819.675    0.1168E-20
  55819.748    0.1174E-20
  55819.820    0.1167E-20
  55819.893    0.1120E-20
  55819.965    0.1120E-20
  55820.038    0.1127E-20
  55820.111    0.1153E-20
  55820.183    0.1241E-20
  55820.256    0.1282E-20
  55820.328    0.1302E-20
  55820.401    0.1309E-20
  55820.473    0.1288E-20
  55820.546    0.1295E-20
  55820.619    0.1399E-20
  55820.691    0.1596E-20
  55820.764    0.1858E-20
  55820.836    0.2131E-20
  55820.909    0.2390E-20
  55820.982    0.2585E-20
  55821.054    0.2760E-20
  55821.127    0.2939E-20
  55821.199    0.3017E-20
  55821.272    0.3061E-20
  55821.345    0.2956E-20
  55821.417    0.2734E-20
  55821.490    0.2510E-20
  55821.562    0.2215E-20
  55821.635    0.1916E-20
  55821.707    0.1702E-20
  55821.780    0.1537E-20
  55821.853    0.1424E-20
  55821.925    0.1354E-20
  55821.998    0.1320E-20
  55822.070    0.1313E-20
  55822.143    0.1299E-20
  55822.216    0.1244E-20
  55822.288    0.1210E-20
  55822.361    0.1162E-20
  55822.433    0.1115E-20
  55822.506    0.1155E-20
  55822.579    0.1230E-20
  55822.651    0.1325E-20
  55822.724    0.1408E-20
  55822.796    0.1471E-20
  55822.869    0.1570E-20
  55822.942    0.1678E-20
  55823.014    0.1854E-20
  55823.087    0.2080E-20
  55823.159    0.2290E-20
  55823.232    0.2515E-20
  55823.305    0.2713E-20
  55823.377    0.2831E-20
  55823.450    0.2891E-20
  55823.522    0.2831E-20
  55823.595    0.2679E-20
  55823.668    0.2522E-20
  55823.740    0.2281E-20
  55823.813    0.2094E-20
  55823.885    0.2033E-20
  55823.958    0.2063E-20
  55824.031    0.2148E-20
  55824.103    0.2202E-20
  55824.176    0.2288E-20
  55824.248    0.2383E-20
  55824.321    0.2488E-20
  55824.394    0.2619E-20
  55824.466    0.2719E-20
  55824.539    0.2702E-20
  55824.611    0.2602E-20
  55824.684    0.2431E-20
  55824.757    0.2248E-20
  55824.829    0.2092E-20
  55824.902    0.1932E-20
  55824.974    0.1806E-20
  55825.047    0.1652E-20
  55825.120    0.1502E-20
  55825.192    0.1431E-20
  55825.265    0.1389E-20
  55825.337    0.1382E-20
  55825.410    0.1361E-20
  55825.483    0.1285E-20
  55825.555    0.1217E-20
  55825.628    0.1210E-20
  55825.700    0.1169E-20
  55825.773    0.1089E-20
  55825.846    0.1022E-20
  55825.918    0.1015E-20
  55825.991    0.1022E-20
  55826.063    0.1042E-20
  55826.136    0.1042E-20
  55826.209    0.1075E-20
  55826.281    0.1094E-20
  55826.354    0.1081E-20
  55826.426    0.1034E-20
  55826.499    0.9487E-21
  55826.572    0.8770E-21
  55826.644    0.8381E-21
  55826.717    0.8187E-21
  55826.789    0.7929E-21
  55826.862    0.7991E-21
  55826.935    0.8311E-21
  55827.007    0.8053E-21
  55827.080    0.7732E-21
  55827.152    0.8178E-21
  55827.225    0.8434E-21
  55827.298    0.8626E-21
  55827.370    0.8948E-21
  55827.443    0.9142E-21
  55827.515    0.9010E-21
  55827.588    0.8620E-21
  55827.661    0.8554E-21
  55827.733    0.8812E-21
  55827.806    0.9265E-21
  55827.879    0.9459E-21
  55827.951    0.9002E-21
  55828.024    0.8289E-21
  55828.096    0.8224E-21
  55828.169    0.8094E-21
  55828.242    0.7964E-21
  55828.314    0.8412E-21
  55828.387    0.8669E-21
  55828.459    0.8862E-21
  55828.532    0.8731E-21
  55828.605    0.8342E-21
  55828.677    0.7509E-21
  55828.750    0.7254E-21
  55828.822    0.7697E-21
  55828.895    0.8272E-21
  55828.968    0.9047E-21
  55829.040    0.9306E-21
  55829.113    0.9566E-21
  55829.186    0.9108E-21
  55829.258    0.8523E-21
  55829.331    0.8392E-21
  55829.403    0.8262E-21
  55829.476    0.8261E-21
  55829.549    0.7365E-21
  55829.621    0.6668E-21
  55829.694    0.6667E-21
  55829.766    0.6540E-21
  55829.839    0.6538E-21
  55829.912    0.6474E-21
  55829.984    0.6410E-21
  55830.057    0.6660E-21
  55830.130    0.6973E-21
  55830.202    0.7606E-21
  55830.275    0.7796E-21
  55830.347    0.8051E-21
  55830.420    0.8242E-21
  55830.493    0.8112E-21
  55830.565    0.7663E-21
  55830.638    0.7343E-21
  55830.710    0.7852E-21
  55830.783    0.8107E-21
  55830.856    0.8234E-21
  55830.928    0.8555E-21
  55831.001    0.9007E-21
  55831.074    0.8681E-21
  55831.146    0.8357E-21
  55831.219    0.8098E-21
  55831.291    0.7968E-21
  55831.364    0.8159E-21
  55831.437    0.8158E-21
  55831.509    0.8285E-21
  55831.582    0.8155E-21
  55831.655    0.8089E-21
  55831.727    0.8345E-21
  55831.800    0.8537E-21
  55831.872    0.8730E-21
  55831.945    0.8729E-21
  55832.018    0.8792E-21
  55832.090    0.8467E-21
  55832.163    0.8272E-21
  55832.235    0.7822E-21
  55832.308    0.7057E-21
  55832.381    0.6866E-21
  55832.453    0.7054E-21
  55832.526    0.7688E-21
  55832.599    0.7878E-21
  55832.671    0.7749E-21
  55832.744    0.7302E-21
  55832.816    0.6920E-21
  55832.889    0.6919E-21
  55832.962    0.6665E-21
  55833.034    0.6727E-21
  55833.107    0.7231E-21
  55833.180    0.7611E-21
  55833.252    0.7802E-21
  55833.325    0.7672E-21
  55833.397    0.7735E-21
  55833.470    0.7606E-21
  55833.543    0.7668E-21
  55833.615    0.7731E-21
  55833.688    0.7474E-21
  55833.761    0.7473E-21
  55833.833    0.7344E-21
  55833.906    0.7152E-21
  55833.978    0.6645E-21
  55834.051    0.6330E-21
  55834.124    0.6078E-21
  55834.196    0.5952E-21
  55834.269    0.5951E-21
  55834.342    0.5763E-21
  55834.414    0.5761E-21
  55834.487    0.6572E-21
  55834.560    0.7457E-21
  55834.632    0.8224E-21
  55834.705    0.8416E-21
  55834.777    0.8673E-21
  55834.850    0.8801E-21
  55834.923    0.9060E-21
  55834.995    0.9319E-21
  55835.068    0.8538E-21
  55835.141    0.8021E-21
  55835.213    0.7635E-21
  55835.286    0.7252E-21
  55835.358    0.7377E-21
  55835.431    0.6995E-21
  55835.504    0.6741E-21
  55835.576    0.6614E-21
  55835.649    0.6549E-21
  55835.722    0.6990E-21
  55835.794    0.7624E-21
  55835.867    0.7495E-21
  55835.940    0.7430E-21
  55836.012    0.7492E-21
  55836.085    0.7810E-21
  55836.157    0.8387E-21
  55836.230    0.8385E-21
  55836.303    0.8578E-21
  55836.375    0.8706E-21
  55836.448    0.8059E-21
  55836.521    0.7354E-21
  55836.593    0.6972E-21
  55836.666    0.6655E-21
  55836.738    0.6152E-21
  55836.811    0.6088E-21
  55836.884    0.6462E-21
  55836.956    0.7092E-21
  55837.029    0.7472E-21
  55837.102    0.7216E-21
  55837.174    0.6268E-21
  55837.247    0.5457E-21
  55837.320    0.4839E-21
  55837.392    0.4531E-21
  55837.465    0.4469E-21
  55837.537    0.5451E-21
  55837.610    0.6511E-21
  55837.683    0.6698E-21
  55837.755    0.6634E-21
  55837.828    0.6632E-21
  55837.901    0.6631E-21
  55837.973    0.6378E-21
  55838.046    0.5876E-21
  55838.119    0.5254E-21
  55838.191    0.5253E-21
  55838.264    0.5810E-21
  55838.337    0.6120E-21
  55838.409    0.6244E-21
  55838.482    0.5992E-21
  55838.554    0.6178E-21
  55838.627    0.6680E-21
  55838.700    0.7184E-21
  55838.772    0.7437E-21
  55838.845    0.7500E-21
  55838.918    0.7053E-21
  55838.990    0.6546E-21
  55839.063    0.6671E-21
  55839.136    0.6922E-21
  55839.208    0.7301E-21
  55839.281    0.7236E-21
  55839.354    0.6855E-21
  55839.426    0.6036E-21
  55839.499    0.5723E-21
  55839.571    0.5846E-21
  55839.644    0.5969E-21
  55839.717    0.5906E-21
  55839.789    0.6154E-21
  55839.862    0.6278E-21
  55839.935    0.6402E-21
  55840.007    0.6842E-21
  55840.080    0.6651E-21
  55840.153    0.6398E-21
  55840.225    0.5958E-21
  55840.298    0.5149E-21
  55840.371    0.4902E-21
  55840.443    0.4655E-21
  55840.516    0.4899E-21
  55840.588    0.5951E-21
  55840.661    0.6576E-21
  55840.734    0.6891E-21
  55840.806    0.7206E-21
  55840.879    0.7078E-21
  55840.952    0.7140E-21
  55841.024    0.7584E-21
  55841.097    0.7201E-21
  55841.170    0.6440E-21
  55841.242    0.6063E-21
  55841.315    0.6249E-21
  55841.388    0.6248E-21
  55841.460    0.5996E-21
  55841.533    0.5870E-21
  55841.606    0.5931E-21
  55841.678    0.5804E-21
  55841.751    0.5803E-21
  55841.823    0.5802E-21
  55841.896    0.5676E-21
  55841.969    0.5736E-21
  55842.041    0.5486E-21
  55842.114    0.5423E-21
  55842.187    0.5857E-21
  55842.259    0.6356E-21
  55842.332    0.6859E-21
  55842.405    0.6668E-21
  55842.477    0.6478E-21
  55842.550    0.6225E-21
  55842.623    0.6286E-21
  55842.695    0.6473E-21
  55842.768    0.6221E-21
  55842.841    0.6345E-21
  55842.913    0.6218E-21
  55842.986    0.6405E-21
  55843.059    0.6340E-21
  55843.131    0.6088E-21
  55843.204    0.5837E-21
  55843.277    0.5835E-21
  55843.349    0.5709E-21
  55843.422    0.5895E-21
  55843.495    0.6081E-21
  55843.567    0.6267E-21
  55843.640    0.6392E-21
  55843.712    0.6453E-21
  55843.785    0.6641E-21
  55843.858    0.6766E-21
  55843.930    0.7208E-21
  55844.003    0.7207E-21
  55844.076    0.6698E-21
  55844.148    0.5756E-21
  55844.221    0.5134E-21
  55844.294    0.4947E-21
  55844.366    0.5255E-21
  55844.439    0.6000E-21
  55844.512    0.6437E-21
  55844.584    0.6373E-21
  55844.657    0.6183E-21
  55844.730    0.6119E-21
  55844.802    0.6055E-21
  55844.875    0.6304E-21
  55844.948    0.6366E-21
  55845.020    0.6302E-21
  55845.093    0.6615E-21
  55845.166    0.6740E-21
  55845.238    0.6928E-21
  55845.311    0.7436E-21
  55845.384    0.7626E-21
  55845.456    0.7178E-21
  55845.529    0.6669E-21
  55845.602    0.6227E-21
  55845.674    0.6289E-21
  55845.747    0.6413E-21
  55845.820    0.6474E-21
  55845.892    0.6222E-21
  55845.965    0.6032E-21
  55846.038    0.6156E-21
  55846.110    0.6280E-21
  55846.183    0.6216E-21
  55846.256    0.6340E-21
  55846.328    0.6907E-21
  55846.401    0.7542E-21
  55846.474    0.7990E-21
  55846.546    0.8311E-21
  55846.619    0.8116E-21
  55846.692    0.7985E-21
  55846.764    0.7727E-21
  55846.837    0.8111E-21
  55846.910    0.8498E-21
  55846.982    0.8561E-21
  55847.055    0.8495E-21
  55847.128    0.8364E-21
  55847.200    0.8169E-21
  55847.273    0.8167E-21
  55847.346    0.8619E-21
  55847.418    0.9074E-21
  55847.491    0.1019E-20
  55847.564    0.1249E-20
  55847.636    0.1514E-20
  55847.709    0.1827E-20
  55847.782    0.2297E-20
  55847.854    0.2956E-20
  55847.927    0.3673E-20
  55848.000    0.4417E-20
  55848.072    0.5719E-20
  55848.145    0.6588E-20
  55848.218    0.7150E-20
  55848.290    0.7395E-20
  55848.363    0.7134E-20
  55848.436    0.6469E-20
  55848.508    0.5653E-20
  55848.581    0.4836E-20
  55848.654    0.3313E-20
  55848.726    0.2850E-20
  55848.799    0.2505E-20
  55848.872    0.2208E-20
  55848.944    0.1930E-20
  55849.017    0.1670E-20
  55849.090    0.1533E-20
  55849.162    0.1533E-20
  55849.235    0.1590E-20
  55849.308    0.1750E-20
  55849.380    0.2013E-20
  55849.453    0.2326E-20
  55849.526    0.2746E-20
  55849.598    0.3256E-20
  55849.671    0.3816E-20
  55849.744    0.5062E-20
  55849.816    0.6198E-20
  55849.889    0.7408E-20
  55849.962    0.8460E-20
  55850.034    0.9113E-20
  55850.107    0.9359E-20
  55850.180    0.9377E-20
  55850.252    0.9223E-20
  55850.325    0.8951E-20
  55850.398    0.8834E-20
  55850.470    0.8968E-20
  55850.543    0.9210E-20
  55850.616    0.9461E-20
  55850.688    0.9550E-20
  55850.761    0.9341E-20
  55850.834    0.8933E-20
  55850.906    0.8307E-20
  55850.979    0.7446E-20
  55851.052    0.6488E-20
  55851.124    0.5551E-20
  55851.197    0.4168E-20
  55851.270    0.3485E-20
  55851.343    0.2984E-20
  55851.415    0.2574E-20
  55851.488    0.2282E-20
  55851.561    0.2024E-20
  55851.633    0.1812E-20
  55851.706    0.1578E-20
  55851.779    0.1407E-20
  55851.851    0.1323E-20
  55851.924    0.1247E-20
  55851.997    0.1185E-20
  55852.069    0.1104E-20
  55852.142    0.1077E-20
  55852.215    0.1037E-20
  55852.287    0.9833E-21
  55852.360    0.9567E-21
  55852.433    0.9171E-21
  55852.505    0.8452E-21
  55852.578    0.7356E-21
  55852.651    0.6025E-21
  55852.723    0.5773E-21
  55852.796    0.6148E-21
  55852.869    0.6777E-21
  55852.941    0.7030E-21
  55853.014    0.7347E-21
  55853.087    0.7410E-21
  55853.160    0.7408E-21
  55853.232    0.7343E-21
  55853.305    0.7533E-21
  55853.378    0.7660E-21
  55853.450    0.7595E-21
  55853.523    0.7209E-21
  55853.596    0.6700E-21
  55853.668    0.6698E-21
  55853.741    0.6823E-21
  55853.814    0.7013E-21
  55853.886    0.7907E-21
  55853.959    0.8294E-21
  55854.032    0.7905E-21
  55854.104    0.7390E-21
  55854.177    0.6815E-21
  55854.250    0.6119E-21
  55854.322    0.5492E-21
  55854.395    0.5242E-21
  55854.468    0.4993E-21
  55854.541    0.5053E-21
  55854.613    0.5424E-21
  55854.686    0.6047E-21
  55854.759    0.6235E-21
  55854.831    0.6170E-21
  55854.904    0.6043E-21
  55854.977    0.5729E-21
  55855.049    0.4981E-21
  55855.122    0.4733E-21
  55855.195    0.4978E-21
  55855.267    0.5039E-21
  55855.340    0.4914E-21
  55855.413    0.5408E-21
  55855.486    0.5969E-21
  55855.558    0.6093E-21
  55855.631    0.6029E-21
  55855.704    0.5777E-21
  55855.776    0.5401E-21
  55855.849    0.5275E-21
  55855.922    0.4964E-21
  55855.994    0.5024E-21
  55856.067    0.5582E-21
  55856.140    0.5768E-21
  55856.212    0.5642E-21
  55856.285    0.5578E-21
  55856.358    0.5514E-21
  55856.430    0.5513E-21
  55856.503    0.5324E-21
  55856.576    0.5385E-21
  55856.649    0.6260E-21
  55856.724    0.6574E-21
