 16O2;(10,0);79K;54750-5100 cm-1;4989 pts
     WNO          SIGMA 
  54750.031   -0.8948E-23
  54750.100   -0.1184E-22
  54750.170   -0.4695E-23
  54750.240   -0.6157E-23
  54750.309   -0.1335E-22
  54750.379   -0.2477E-22
  54750.449   -0.4173E-22
  54750.519   -0.5713E-22
  54750.588   -0.5437E-22
  54750.658   -0.5579E-22
  54750.728   -0.4884E-22
  54750.798   -0.3624E-22
  54750.867   -0.1784E-22
  54750.937   -0.7853E-23
  54751.007   -0.7879E-23
  54751.076   -0.5033E-23
  54751.146   -0.7931E-23
  54751.216    0.6739E-24
  54751.286    0.1078E-22
  54751.355    0.1657E-22
  54751.425    0.1072E-22
  54751.495    0.2013E-23
  54751.565    0.1987E-23
  54751.634    0.6298E-23
  54751.704    0.9170E-23
  54751.774    0.3353E-23
  54751.843    0.4773E-23
  54751.913    0.3301E-23
  54751.983   -0.2494E-23
  54752.053   -0.1114E-22
  54752.122   -0.1259E-22
  54752.192   -0.1833E-22
  54752.262   -0.1978E-22
  54752.332   -0.1696E-22
  54752.401   -0.4090E-23
  54752.471    0.3093E-23
  54752.541    0.7408E-23
  54752.611    0.1319E-22
  54752.680    0.1171E-22
  54752.750    0.2989E-23
  54752.820   -0.5684E-23
  54752.889   -0.1431E-22
  54752.959   -0.1434E-22
  54753.029   -0.1444E-23
  54753.099    0.1737E-22
  54753.168    0.2173E-22
  54753.238    0.2463E-22
  54753.308    0.1876E-22
  54753.378    0.9996E-23
  54753.447   -0.3041E-23
  54753.517   -0.1454E-22
  54753.587   -0.1314E-22
  54753.657   -0.4558E-23
  54753.726   -0.8894E-23
  54753.796   -0.1322E-22
  54753.866   -0.1324E-22
  54753.936   -0.1756E-22
  54754.005   -0.1186E-22
  54754.075   -0.1046E-22
  54754.145   -0.9050E-23
  54754.215   -0.1051E-22
  54754.284   -0.7667E-23
  54754.354   -0.1056E-22
  54754.424   -0.6282E-23
  54754.493   -0.5495E-24
  54754.563   -0.5755E-24
  54754.633    0.2286E-23
  54754.703    0.8050E-23
  54754.772    0.1967E-22
  54754.842    0.2550E-22
  54754.912    0.2841E-22
  54754.982    0.3279E-22
  54755.051    0.4906E-22
  54755.121    0.6098E-22
  54755.191    0.4900E-22
  54755.261    0.1803E-22
  54755.330   -0.1236E-22
  54755.400   -0.2522E-22
  54755.470   -0.1670E-22
  54755.540   -0.5261E-23
  54755.609   -0.6725E-23
  54755.679   -0.1106E-22
  54755.749   -0.9649E-23
  54755.819   -0.6803E-23
  54755.888   -0.3952E-23
  54755.958    0.3467E-24
  54756.028   -0.1122E-23
  54756.098   -0.2590E-23
  54756.167   -0.4057E-23
  54756.237   -0.8396E-23
  54756.307   -0.1227E-23
  54756.377    0.1615E-22
  54756.446    0.2343E-22
  54756.516    0.1902E-22
  54756.586    0.1461E-22
  54756.656    0.8615E-25
  54756.725   -0.1145E-22
  54756.795   -0.2147E-22
  54756.865   -0.2435E-22
  54756.935   -0.1296E-22
  54757.004   -0.4412E-25
  54757.074    0.1881E-22
  54757.144    0.1732E-22
  54757.214    0.8563E-23
  54757.283    0.4189E-23
  54757.353   -0.1617E-23
  54757.423   -0.2005E-24
  54757.493    0.9912E-23
  54757.562    0.1863E-22
  54757.632    0.1860E-22
  54757.702    0.8381E-23
  54757.772   -0.7533E-23
  54757.842   -0.1901E-22
  54757.911   -0.3041E-22
  54757.981   -0.3610E-22
  54758.051   -0.2194E-22
  54758.121    0.2429E-23
  54758.190    0.2718E-22
  54758.260    0.4488E-22
  54758.330    0.5529E-22
  54758.400    0.4632E-22
  54758.469    0.2561E-22
  54758.539    0.1097E-22
  54758.609    0.9495E-23
  54758.679    0.1675E-22
  54758.748    0.2844E-22
  54758.818    0.3874E-22
  54758.888    0.2986E-22
  54758.958    0.2249E-22
  54759.027    0.9338E-23
  54759.097   -0.2269E-23
  54759.167   -0.8054E-23
  54759.237   -0.1382E-22
  54759.306   -0.1384E-22
  54759.376   -0.1673E-22
  54759.446   -0.9563E-24
  54759.516    0.4803E-23
  54759.586    0.1058E-22
  54759.655    0.1201E-22
  54759.725    0.1636E-22
  54759.795    0.1779E-22
  54759.865    0.1923E-22
  54759.934    0.1920E-22
  54760.004    0.6070E-23
  54760.074   -0.5516E-23
  54760.144   -0.1272E-22
  54760.213   -0.8445E-23
  54760.283    0.3068E-23
  54760.353    0.1321E-22
  54760.423    0.4464E-23
  54760.493   -0.4232E-23
  54760.562   -0.8575E-23
  54760.632   -0.5725E-23
  54760.702   -0.2869E-23
  54760.772   -0.7350E-26
  54760.841   -0.2921E-23
  54760.911   -0.2947E-23
  54760.981    0.1360E-23
  54761.051    0.4229E-23
  54761.120    0.1146E-22
  54761.190   -0.1608E-23
  54761.260   -0.2599E-22
  54761.330   -0.3594E-22
  54761.400   -0.4442E-22
  54761.469   -0.4444E-22
  54761.539   -0.3035E-22
  54761.609   -0.1899E-22
  54761.679   -0.1473E-22
  54761.748   -0.3260E-23
  54761.818    0.8295E-23
  54761.888    0.1118E-22
  54761.958   -0.4507E-24
  54762.028   -0.1915E-22
  54762.097   -0.2914E-22
  54762.167   -0.3484E-22
  54762.237   -0.4051E-22
  54762.307   -0.4053E-22
  54762.376   -0.4338E-22
  54762.446   -0.3918E-22
  54762.516   -0.2788E-22
  54762.586   -0.1364E-22
  54762.656    0.9436E-23
  54762.725    0.2402E-22
  54762.795    0.3430E-22
  54762.865    0.3575E-22
  54762.935    0.2394E-22
  54763.004    0.1513E-22
  54763.074    0.6373E-23
  54763.144   -0.8942E-24
  54763.214    0.6321E-23
  54763.284    0.7747E-23
  54763.353    0.1646E-22
  54763.423    0.1352E-22
  54763.493    0.3316E-23
  54763.563    0.3949E-24
  54763.632    0.6165E-23
  54763.702    0.6138E-23
  54763.772    0.3212E-23
  54763.842    0.6086E-23
  54763.912    0.7512E-23
  54763.981    0.1185E-22
  54764.051    0.1620E-22
  54764.121    0.2203E-22
  54764.191    0.2200E-22
  54764.260    0.2491E-22
  54764.330    0.3225E-22
  54764.400    0.3222E-22
  54764.470    0.3811E-22
  54764.540    0.4254E-22
  54764.609    0.4548E-22
  54764.679    0.4100E-22
  54764.749    0.3505E-22
  54764.819    0.4392E-22
  54764.889    0.5883E-22
  54764.958    0.7389E-22
  54765.028    0.8909E-22
  54765.098    0.9519E-22
  54765.168    0.1106E-21
  54765.238    0.1324E-21
  54765.307    0.1626E-21
  54765.377    0.1966E-21
  54765.447    0.2080E-21
  54765.517    0.2047E-21
  54765.586    0.1932E-21
  54765.656    0.1883E-21
  54765.726    0.1753E-21
  54765.796    0.1624E-21
  54765.866    0.1592E-21
  54765.935    0.1559E-21
  54766.005    0.1623E-21
  54766.075    0.1607E-21
  54766.145    0.1495E-21
  54766.215    0.1368E-21
  54766.284    0.1226E-21
  54766.354    0.1179E-21
  54766.424    0.1226E-21
  54766.494    0.1273E-21
  54766.564    0.1178E-21
  54766.633    0.1194E-21
  54766.703    0.1335E-21
  54766.773    0.1287E-21
  54766.843    0.1224E-21
  54766.913    0.1115E-21
  54766.982    0.1068E-21
  54767.052    0.1006E-21
  54767.122    0.9137E-22
  54767.192    0.7154E-22
  54767.262    0.6396E-22
  54767.331    0.6243E-22
  54767.401    0.6391E-22
  54767.471    0.6087E-22
  54767.541    0.5185E-22
  54767.611    0.3990E-22
  54767.680    0.3247E-22
  54767.750    0.3097E-22
  54767.820    0.3242E-22
  54767.890    0.3387E-22
  54767.960    0.3237E-22
  54768.029    0.2497E-22
  54768.099    0.2348E-22
  54768.169    0.3081E-22
  54768.239    0.3522E-22
  54768.309    0.3520E-22
  54768.378    0.3665E-22
  54768.448    0.3071E-22
  54768.518    0.1746E-22
  54768.588    0.1159E-22
  54768.658    0.2834E-23
  54768.727   -0.7312E-23
  54768.797   -0.1309E-22
  54768.867   -0.1024E-22
  54768.937    0.4180E-23
  54769.007    0.2020E-22
  54769.076    0.3787E-22
  54769.146    0.4826E-22
  54769.216    0.3930E-22
  54769.286    0.3779E-22
  54769.356    0.3925E-22
  54769.425    0.2739E-22
  54769.495    0.1270E-22
  54769.565   -0.4741E-23
  54769.635   -0.1484E-22
  54769.705   -0.4562E-24
  54769.774    0.1845E-22
  54769.844    0.3610E-22
  54769.914    0.4053E-22
  54769.984    0.4199E-22
  54770.054    0.4792E-22
  54770.124    0.4342E-22
  54770.193    0.3301E-22
  54770.263    0.2267E-22
  54770.333    0.1678E-22
  54770.403    0.1383E-22
  54770.473    0.1380E-22
  54770.542    0.1670E-22
  54770.612    0.9370E-23
  54770.682    0.6433E-23
  54770.752    0.2050E-23
  54770.822   -0.3767E-23
  54770.891    0.5478E-24
  54770.961    0.1216E-22
  54771.031    0.1213E-22
  54771.101    0.4822E-23
  54771.171    0.1893E-23
  54771.241   -0.6811E-23
  54771.310   -0.1403E-22
  54771.380   -0.8305E-23
  54771.450   -0.5447E-23
  54771.520   -0.5473E-23
  54771.590   -0.5499E-23
  54771.659    0.2602E-24
  54771.729    0.1479E-22
  54771.799    0.1476E-22
  54771.869    0.1620E-22
  54771.939    0.1471E-22
  54772.009    0.2348E-22
  54772.078    0.3083E-22
  54772.148    0.3376E-22
  54772.218    0.3225E-22
  54772.288    0.2927E-22
  54772.358    0.3516E-22
  54772.427    0.4703E-22
  54772.497    0.5298E-22
  54772.567    0.5296E-22
  54772.637    0.4844E-22
  54772.707    0.3503E-22
  54772.777    0.2320E-22
  54772.846    0.2464E-22
  54772.916    0.2609E-22
  54772.986    0.2165E-22
  54773.056    0.1187E-23
  54773.126   -0.3184E-23
  54773.196   -0.1763E-23
  54773.265    0.2559E-23
  54773.335    0.1273E-22
  54773.405    0.2443E-22
  54773.475    0.4068E-22
  54773.545    0.4214E-22
  54773.614    0.2877E-22
  54773.684    0.1699E-22
  54773.754    0.2136E-22
  54773.824    0.3313E-22
  54773.894    0.3458E-22
  54773.964    0.3752E-22
  54774.033    0.3305E-22
  54774.103    0.2417E-22
  54774.173    0.1387E-22
  54774.243    0.5099E-23
  54774.313    0.1382E-22
  54774.383    0.2259E-22
  54774.452    0.2110E-22
  54774.522    0.7905E-23
  54774.592    0.7879E-23
  54774.662    0.5852E-24
  54774.732   -0.5231E-23
  54774.802    0.6345E-23
  54774.871    0.1801E-22
  54774.941    0.1798E-22
  54775.011    0.1356E-22
  54775.081    0.6240E-23
  54775.151    0.3305E-23
  54775.221    0.4733E-23
  54775.290    0.1638E-22
  54775.360    0.3108E-22
  54775.430    0.3253E-22
  54775.500    0.2365E-22
  54775.570    0.1043E-22
  54775.640   -0.2679E-23
  54775.709   -0.1855E-22
  54775.779   -0.1571E-22
  54775.849   -0.8537E-23
  54775.919   -0.5676E-23
  54775.989    0.2991E-23
  54776.059    0.1903E-22
  54776.128    0.2341E-22
  54776.198    0.2633E-22
  54776.268    0.2631E-22
  54776.338    0.2039E-22
  54776.408    0.3068E-22
  54776.478    0.4402E-22
  54776.547    0.4549E-22
  54776.617    0.4248E-22
  54776.687    0.4842E-22
  54776.757    0.6493E-22
  54776.827    0.7096E-22
  54776.897    0.6639E-22
  54776.966    0.7242E-22
  54777.036    0.8459E-22
  54777.106    0.8609E-22
  54777.176    0.7691E-22
  54777.246    0.6173E-22
  54777.316    0.5118E-22
  54777.386    0.5716E-22
  54777.455    0.6618E-22
  54777.525    0.6012E-22
  54777.595    0.6311E-22
  54777.665    0.6308E-22
  54777.735    0.6154E-22
  54777.805    0.5700E-22
  54777.874    0.5998E-22
  54777.944    0.7054E-22
  54778.014    0.7051E-22
  54778.084    0.7049E-22
  54778.154    0.6743E-22
  54778.224    0.7044E-22
  54778.293    0.8106E-22
  54778.363    0.9330E-22
  54778.433    0.9327E-22
  54778.503    0.9787E-22
  54778.573    0.1071E-21
  54778.643    0.1211E-21
  54778.713    0.1464E-21
  54778.782    0.1591E-21
  54778.852    0.1736E-21
  54778.922    0.1915E-21
  54778.992    0.1997E-21
  54779.062    0.2112E-21
  54779.132    0.2312E-21
  54779.202    0.2514E-21
  54779.271    0.2771E-21
  54779.341    0.3156E-21
  54779.411    0.3532E-21
  54779.481    0.4010E-21
  54779.551    0.4542E-21
  54779.621    0.5092E-21
  54779.690    0.5849E-21
  54779.760    0.6822E-21
  54779.830    0.7811E-21
  54779.900    0.7963E-21
  54779.970    0.8823E-21
  54780.040    0.9748E-21
  54780.110    0.1068E-20
  54780.179    0.1134E-20
  54780.249    0.1163E-20
  54780.319    0.1161E-20
  54780.389    0.1134E-20
  54780.459    0.1116E-20
  54780.529    0.1113E-20
  54780.599    0.1110E-20
  54780.668    0.1108E-20
  54780.738    0.1111E-20
  54780.808    0.1103E-20
  54780.878    0.1084E-20
  54780.948    0.1068E-20
  54781.018    0.1050E-20
  54781.088    0.1031E-20
  54781.157    0.9984E-21
  54781.227    0.9406E-21
  54781.297    0.8855E-21
  54781.367    0.8380E-21
  54781.437    0.7879E-21
  54781.507    0.7086E-21
  54781.577    0.6419E-21
  54781.646    0.5842E-21
  54781.716    0.5489E-21
  54781.786    0.5044E-21
  54781.856    0.4610E-21
  54781.926    0.4113E-21
  54781.996    0.3613E-21
  54782.066    0.3199E-21
  54782.136    0.2899E-21
  54782.205    0.2640E-21
  54782.275    0.2452E-21
  54782.345    0.2250E-21
  54782.415    0.2017E-21
  54782.485    0.1804E-21
  54782.555    0.1625E-21
  54782.625    0.1529E-21
  54782.694    0.1354E-21
  54782.764    0.1259E-21
  54782.834    0.1274E-21
  54782.904    0.1148E-21
  54782.974    0.9157E-22
  54783.044    0.7318E-22
  54783.114    0.6104E-22
  54783.183    0.5799E-22
  54783.253    0.6703E-22
  54783.323    0.7765E-22
  54783.393    0.8834E-22
  54783.463    0.1037E-21
  54783.533    0.1068E-21
  54783.603    0.9287E-22
  54783.673    0.7904E-22
  54783.742    0.6533E-22
  54783.812    0.6531E-22
  54783.882    0.6377E-22
  54783.952    0.6072E-22
  54784.022    0.4717E-22
  54784.092    0.3521E-22
  54784.162    0.2334E-22
  54784.232    0.5722E-23
  54784.301    0.2782E-23
  54784.371    0.4212E-23
  54784.441    0.2177E-22
  54784.511    0.4549E-22
  54784.581    0.5898E-22
  54784.651    0.6802E-22
  54784.721    0.6952E-22
  54784.791    0.5739E-22
  54784.860    0.3195E-22
  54784.930    0.1277E-22
  54785.000   -0.3885E-24
  54785.070   -0.1867E-23
  54785.140    0.1123E-22
  54785.210    0.3628E-22
  54785.280    0.4072E-22
  54785.350    0.3474E-22
  54785.419    0.3174E-22
  54785.489    0.2876E-22
  54785.559    0.2135E-22
  54785.629    0.3018E-22
  54785.699    0.3609E-22
  54785.769    0.2717E-22
  54785.839    0.3753E-22
  54785.909    0.5396E-22
  54785.978    0.6147E-22
  54786.048    0.5692E-22
  54786.118    0.5088E-22
  54786.188    0.3146E-22
  54786.258    0.9343E-23
  54786.328    0.7855E-23
  54786.398    0.9290E-23
  54786.468    0.2691E-22
  54786.537    0.3578E-22
  54786.607    0.4022E-22
  54786.677    0.4617E-22
  54786.747    0.4914E-22
  54786.817    0.4313E-22
  54786.887    0.2380E-22
  54786.957    0.1054E-22
  54787.027    0.1759E-23
  54787.097   -0.2628E-23
  54787.166   -0.1202E-23
  54787.236   -0.1228E-23
  54787.306    0.1654E-23
  54787.376    0.1039E-22
  54787.446    0.2654E-22
  54787.516    0.3988E-22
  54787.586    0.3985E-22
  54787.656    0.4730E-22
  54787.726    0.5027E-22
  54787.795    0.4127E-22
  54787.865    0.3975E-22
  54787.935    0.3972E-22
  54788.005    0.2781E-22
  54788.075    0.1305E-22
  54788.145   -0.1569E-23
  54788.215   -0.7396E-23
  54788.285   -0.5974E-23
  54788.355   -0.1648E-23
  54788.424   -0.4577E-23
  54788.494   -0.4604E-23
  54788.564   -0.3179E-23
  54788.634   -0.2993E-24
  54788.704    0.6962E-23
  54788.774    0.1133E-22
  54788.844    0.1130E-22
  54788.914    0.6884E-23
  54788.984    0.3938E-23
  54789.053    0.9756E-23
  54789.123    0.3886E-23
  54789.193   -0.7764E-23
  54789.263   -0.1933E-22
  54789.333   -0.1504E-22
  54789.403   -0.1650E-22
  54789.473   -0.2084E-22
  54789.543   -0.2231E-22
  54789.613   -0.1081E-22
  54789.682    0.5135E-23
  54789.752    0.1683E-22
  54789.822    0.2122E-22
  54789.892    0.3155E-22
  54789.962    0.2264E-22
  54790.032    0.1672E-22
  54790.102    0.1376E-22
  54790.172    0.2034E-23
  54790.242   -0.1105E-22
  54790.312   -0.1541E-22
  54790.381   -0.1975E-22
  54790.451   -0.1978E-22
  54790.521   -0.8263E-23
  54790.591    0.1877E-23
  54790.661   -0.1061E-23
  54790.731    0.6201E-23
  54790.801    0.2676E-22
  54790.871    0.4310E-22
  54790.941    0.5357E-22
  54791.011    0.5656E-22
  54791.080    0.4452E-22
  54791.150    0.3851E-22
  54791.220    0.2512E-22
  54791.290    0.7453E-23
  54791.360    0.1588E-23
  54791.430   -0.1438E-22
  54791.500   -0.3020E-22
  54791.570   -0.3735E-22
  54791.640   -0.4730E-22
  54791.710   -0.3740E-22
  54791.780   -0.2027E-22
  54791.849   -0.4413E-23
  54791.919    0.5754E-23
  54791.989    0.1305E-22
  54792.059    0.1596E-22
  54792.129    0.7137E-23
  54792.199    0.2730E-23
  54792.269    0.8548E-23
  54792.339    0.1292E-22
  54792.409    0.1583E-22
  54792.479    0.9933E-23
  54792.548   -0.4676E-23
  54792.618   -0.1050E-22
  54792.688   -0.7629E-23
  54792.758   -0.4755E-23
  54792.828   -0.4201E-24
  54792.898   -0.4807E-23
  54792.968   -0.1207E-22
  54793.038   -0.1931E-22
  54793.108   -0.1934E-22
  54793.178   -0.7813E-23
  54793.248    0.8180E-23
  54793.317    0.2878E-22
  54793.387    0.4066E-22
  54793.457    0.3914E-22
  54793.527    0.2574E-22
  54793.597    0.6586E-23
  54793.667   -0.9445E-23
  54793.737   -0.2675E-22
  54793.807   -0.3106E-22
  54793.877   -0.2393E-22
  54793.947   -0.1244E-22
  54794.017   -0.8668E-24
  54794.087    0.4940E-23
  54794.156    0.4914E-23
  54794.226   -0.3854E-23
  54794.296    0.4843E-24
  54794.366   -0.2453E-23
  54794.436   -0.6836E-23
  54794.506   -0.1051E-23
  54794.576   -0.1077E-23
  54794.646   -0.8365E-23
  54794.716   -0.1273E-22
  54794.786   -0.1709E-22
  54794.856   -0.1134E-22
  54794.926    0.2477E-24
  54794.995    0.2518E-22
  54795.065    0.4302E-22
  54795.135    0.4449E-22
  54795.205    0.3848E-22
  54795.275    0.3696E-22
  54795.345    0.3098E-22
  54795.415    0.1030E-22
  54795.485    0.4414E-23
  54795.555    0.1465E-22
  54795.625    0.2347E-22
  54795.695    0.2937E-22
  54795.765    0.3083E-22
  54795.835    0.2783E-22
  54795.904    0.3226E-22
  54795.974    0.4567E-22
  54796.044    0.5015E-22
  54796.114    0.4262E-22
  54796.184    0.2178E-22
  54796.254    0.1291E-22
  54796.324    0.2321E-22
  54796.394    0.3208E-22
  54796.464    0.2463E-22
  54796.534    0.2165E-22
  54796.604    0.2458E-22
  54796.674    0.2900E-22
  54796.744    0.3790E-22
  54796.813    0.4986E-22
  54796.883    0.4984E-22
  54796.953    0.3335E-22
  54797.023    0.1410E-22
  54797.093   -0.2024E-23
  54797.163   -0.1798E-22
  54797.233   -0.2663E-22
  54797.303   -0.3523E-22
  54797.373   -0.3526E-22
  54797.443   -0.3529E-22
  54797.513   -0.2243E-22
  54797.583   -0.5116E-23
  54797.653    0.7988E-23
  54797.723    0.1972E-22
  54797.792    0.2561E-22
  54797.862    0.2115E-22
  54797.932    0.1522E-22
  54798.002    0.1520E-22
  54798.072    0.1076E-22
  54798.142    0.6339E-23
  54798.212    0.1218E-22
  54798.282    0.1362E-22
  54798.352    0.1213E-22
  54798.422    0.3310E-23
  54798.492    0.3283E-23
  54798.562    0.1058E-22
  54798.632    0.1496E-22
  54798.702    0.9059E-23
  54798.772   -0.5564E-23
  54798.841   -0.5590E-23
  54798.911    0.4587E-23
  54798.981    0.1778E-22
  54799.051    0.2810E-22
  54799.121    0.2511E-22
  54799.191    0.1181E-22
  54799.261    0.4455E-23
  54799.331    0.2967E-23
  54799.401    0.4403E-23
  54799.471   -0.2918E-23
  54799.541   -0.4399E-23
  54799.611   -0.1515E-23
  54799.681   -0.2997E-23
  54799.751    0.1160E-22
  54799.821    0.2782E-22
  54799.891    0.3225E-22
  54799.960    0.2036E-22
  54800.030    0.4166E-23
  54800.100   -0.1186E-22
  54800.170   -0.3346E-22
  54800.240   -0.3919E-22
  54800.310   -0.2635E-22
  54800.380   -0.4715E-23
  54800.450    0.9868E-23
  54800.520    0.9842E-23
  54800.590   -0.3339E-23
  54800.660   -0.1786E-22
  54800.730   -0.2364E-22
  54800.800   -0.1502E-22
  54800.870    0.2388E-23
  54800.940    0.1409E-22
  54801.010    0.1996E-22
  54801.080    0.1699E-22
  54801.150    0.2283E-23
  54801.219   -0.1229E-22
  54801.289   -0.1376E-22
  54801.359   -0.1379E-22
  54801.429   -0.9467E-23
  54801.499   -0.3682E-23
  54801.569   -0.2252E-23
  54801.639   -0.5189E-23
  54801.709   -0.8121E-23
  54801.779   -0.6695E-23
  54801.849   -0.5268E-23
  54801.919   -0.9258E-24
  54801.989    0.1967E-23
  54802.059    0.6330E-23
  54802.129    0.1365E-22
  54802.199    0.1509E-22
  54802.269    0.7716E-23
  54802.339   -0.1084E-23
  54802.409   -0.1129E-22
  54802.479   -0.1421E-22
  54802.548   -0.5532E-23
  54802.618    0.1052E-22
  54802.688    0.4628E-23
  54802.758    0.2172E-24
  54802.828   -0.5637E-23
  54802.898   -0.1725E-22
  54802.968   -0.2879E-22
  54803.038   -0.3597E-22
  54803.108   -0.4169E-22
  54803.178   -0.3602E-22
  54803.248   -0.2459E-22
  54803.318   -0.1741E-22
  54803.388   -0.8753E-23
  54803.458    0.2876E-23
  54803.528    0.8709E-23
  54803.598    0.1456E-22
  54803.668    0.1012E-22
  54803.738   -0.4524E-23
  54803.808   -0.1471E-22
  54803.878   -0.1618E-22
  54803.948   -0.1476E-22
  54804.018   -0.1334E-22
  54804.087   -0.1626E-22
  54804.157   -0.1049E-22
  54804.227   -0.1795E-23
  54804.297    0.2560E-23
  54804.367    0.1072E-23
  54804.437   -0.4788E-23
  54804.507   -0.3358E-23
  54804.577    0.6847E-23
  54804.647    0.6821E-23
  54804.717    0.1120E-22
  54804.787    0.1117E-22
  54804.857    0.2349E-23
  54804.927    0.1259E-22
  54804.997    0.1551E-22
  54805.067    0.8130E-23
  54805.137    0.6636E-23
  54805.207   -0.1379E-22
  54805.277   -0.3681E-22
  54805.347   -0.4253E-22
  54805.417   -0.3543E-22
  54805.487   -0.1679E-22
  54805.557    0.2085E-23
  54805.627    0.2059E-23
  54805.697    0.2032E-23
  54805.767    0.3469E-23
  54805.837    0.3443E-23
  54805.907   -0.9685E-24
  54805.976    0.4654E-24
  54806.046    0.1070E-22
  54806.116    0.9203E-23
  54806.186    0.6241E-23
  54806.256    0.3285E-23
  54806.326   -0.1710E-22
  54806.396   -0.3008E-22
  54806.466   -0.2867E-22
  54806.536   -0.2295E-22
  54806.606   -0.2009E-22
  54806.676   -0.1868E-22
  54806.746   -0.1581E-22
  54806.816   -0.8592E-23
  54806.886   -0.4254E-23
  54806.956    0.5951E-23
  54807.026    0.2510E-22
  54807.096    0.3550E-22
  54807.166    0.4296E-22
  54807.236    0.5197E-22
  54807.306    0.6863E-22
  54807.376    0.6556E-22
  54807.446    0.5189E-22
  54807.516    0.4283E-22
  54807.586    0.3084E-22
  54807.656    0.2635E-22
  54807.726    0.2632E-22
  54807.796    0.2630E-22
  54807.866    0.2182E-22
  54807.936    0.2773E-22
  54808.006    0.3516E-22
  54808.076    0.3364E-22
  54808.146    0.3361E-22
  54808.216    0.4256E-22
  54808.286    0.4855E-22
  54808.356    0.4401E-22
  54808.425    0.3799E-22
  54808.495    0.3497E-22
  54808.565    0.2749E-22
  54808.635    0.2895E-22
  54808.705    0.2744E-22
  54808.775    0.2148E-22
  54808.845    0.1997E-22
  54808.915    0.1256E-22
  54808.985    0.9591E-23
  54809.055    0.8095E-23
  54809.125    0.3668E-23
  54809.195   -0.3667E-23
  54809.265    0.6878E-24
  54809.335    0.6521E-23
  54809.405    0.3562E-23
  54809.475    0.1235E-22
  54809.545    0.2712E-22
  54809.615    0.2859E-22
  54809.685    0.2856E-22
  54809.755    0.2407E-22
  54809.825    0.6337E-23
  54809.895    0.9248E-23
  54809.965    0.2399E-22
  54810.035    0.1952E-22
  54810.105    0.1654E-22
  54810.175    0.2095E-22
  54810.245    0.2092E-22
  54810.315    0.2238E-22
  54810.385    0.1053E-22
  54810.455    0.3167E-23
  54810.525   -0.4168E-23
  54810.595   -0.2735E-23
  54810.665    0.3087E-23
  54810.735    0.7462E-23
  54810.805    0.1332E-22
  54810.875    0.7409E-23
  54810.945    0.1518E-23
  54811.015    0.2955E-23
  54811.085    0.8800E-23
  54811.155    0.1614E-22
  54811.225    0.2649E-22
  54811.295    0.1757E-22
  54811.365    0.4289E-23
  54811.435   -0.3052E-23
  54811.505   -0.1036E-22
  54811.575   -0.1039E-22
  54811.645   -0.6048E-23
  54811.715    0.7093E-23
  54811.785    0.1591E-22
  54811.855    0.2328E-22
  54811.925    0.2474E-22
  54811.995    0.1287E-22
  54812.065    0.5492E-23
  54812.135   -0.6233E-23
  54812.205   -0.7715E-23
  54812.275   -0.9196E-23
  54812.345   -0.1937E-22
  54812.415   -0.2804E-22
  54812.485   -0.3381E-22
  54812.555   -0.2378E-22
  54812.625   -0.1223E-22
  54812.695    0.2322E-23
  54812.765    0.5228E-23
  54812.835    0.8049E-24
  54812.905   -0.5065E-23
  54812.975    0.1398E-22
  54813.045    0.2878E-22
  54813.115    0.3174E-22
  54813.185    0.3320E-22
  54813.255    0.3916E-22
  54813.325    0.4816E-22
  54813.395    0.4512E-22
  54813.465    0.3759E-22
  54813.535    0.3307E-22
  54813.605    0.1818E-22
  54813.675    0.4885E-23
  54813.745    0.6327E-23
  54813.815    0.1219E-22
  54813.885    0.1955E-22
  54813.955    0.1952E-22
  54814.025    0.3289E-22
  54814.095    0.4335E-22
  54814.165    0.4935E-22
  54814.235    0.4480E-22
  54814.305    0.2831E-22
  54814.375    0.1198E-22
  54814.445    0.9004E-23
  54814.515    0.2228E-22
  54814.585    0.3716E-22
  54814.655    0.3864E-22
  54814.725    0.3711E-22
  54814.795    0.2812E-22
  54814.865    0.8845E-23
  54814.935    0.1477E-23
  54815.005    0.2916E-23
  54815.075   -0.4018E-25
  54815.145    0.5799E-23
  54815.215    0.1609E-22
  54815.285    0.2050E-22
  54815.355    0.2196E-22
  54815.425    0.2045E-22
  54815.495    0.1451E-22
  54815.565   -0.2251E-24
  54815.635   -0.2515E-24
  54815.705    0.2652E-23
  54815.775    0.1292E-22
  54815.845    0.2029E-22
  54815.915    0.2324E-22
  54815.985    0.4264E-22
  54816.055    0.6533E-22
  54816.125    0.8218E-22
  54816.195    0.9920E-22
  54816.265    0.1117E-21
  54816.335    0.1085E-21
  54816.405    0.9756E-22
  54816.475    0.9132E-22
  54816.545    0.9440E-22
  54816.615    0.9748E-22
  54816.685    0.9590E-22
  54816.755    0.9432E-22
  54816.825    0.9274E-22
  54816.895    0.8961E-22
  54816.965    0.8032E-22
  54817.035    0.7261E-22
  54817.105    0.7873E-22
  54817.175    0.8024E-22
  54817.245    0.7713E-22
  54817.315    0.7865E-22
  54817.385    0.7708E-22
  54817.455    0.6633E-22
  54817.525    0.7242E-22
  54817.595    0.8780E-22
  54817.665    0.9087E-22
  54817.735    0.9085E-22
  54817.805    0.8772E-22
  54817.875    0.7382E-22
  54817.945    0.6005E-22
  54818.015    0.6307E-22
  54818.085    0.6915E-22
  54818.155    0.6912E-22
  54818.225    0.6451E-22
  54818.295    0.6754E-22
  54818.365    0.6599E-22
  54818.435    0.6139E-22
  54818.505    0.7205E-22
  54818.575    0.8743E-22
  54818.645    0.8122E-22
  54818.715    0.7197E-22
  54818.785    0.6430E-22
  54818.855    0.5060E-22
  54818.926    0.4153E-22
  54818.996    0.4451E-22
  54819.066    0.4901E-22
  54819.136    0.4295E-22
  54819.206    0.3692E-22
  54819.276    0.3989E-22
  54819.346    0.3987E-22
  54819.416    0.5039E-22
  54819.486    0.5491E-22
  54819.556    0.4581E-22
  54819.626    0.3976E-22
  54819.696    0.3673E-22
  54819.766    0.3821E-22
  54819.836    0.4420E-22
  54819.906    0.4719E-22
  54819.976    0.4716E-22
  54820.046    0.5015E-22
  54820.116    0.4409E-22
  54820.186    0.3955E-22
  54820.256    0.3053E-22
  54820.326    0.1860E-22
  54820.396    0.2154E-22
  54820.466    0.2896E-22
  54820.536    0.3942E-22
  54820.606    0.5449E-22
  54820.676    0.6664E-22
  54820.746    0.7428E-22
  54820.816    0.6965E-22
  54820.886    0.5742E-22
  54820.956    0.5587E-22
  54821.026    0.5130E-22
  54821.096    0.4372E-22
  54821.166    0.4671E-22
  54821.236    0.5425E-22
  54821.306    0.6030E-22
  54821.376    0.6638E-22
  54821.447    0.7555E-22
  54821.517    0.8942E-22
  54821.587    0.1003E-21
  54821.657    0.1097E-21
  54821.727    0.1159E-21
  54821.797    0.1222E-21
  54821.867    0.1349E-21
  54821.937    0.1413E-21
  54822.007    0.1493E-21
  54822.077    0.1525E-21
  54822.147    0.1525E-21
  54822.217    0.1476E-21
  54822.287    0.1427E-21
  54822.357    0.1475E-21
  54822.427    0.1718E-21
  54822.497    0.2015E-21
  54822.567    0.2419E-21
  54822.637    0.2834E-21
  54822.707    0.3188E-21
  54822.777    0.3624E-21
  54822.847    0.3865E-21
  54822.917    0.4110E-21
  54822.987    0.4475E-21
  54823.057    0.5049E-21
  54823.127    0.5833E-21
  54823.197    0.6816E-21
  54823.268    0.7767E-21
  54823.338    0.8626E-21
  54823.408    0.8635E-21
  54823.478    0.9527E-21
  54823.548    0.1034E-20
  54823.618    0.1108E-20
  54823.688    0.1154E-20
  54823.758    0.1161E-20
  54823.828    0.1146E-20
  54823.898    0.1129E-20
  54823.968    0.1108E-20
  54824.038    0.1093E-20
  54824.108    0.1082E-20
  54824.178    0.1077E-20
  54824.248    0.1082E-20
  54824.318    0.1091E-20
  54824.388    0.1094E-20
  54824.458    0.1093E-20
  54824.528    0.1084E-20
  54824.598    0.1067E-20
  54824.668    0.1043E-20
  54824.738    0.1028E-20
  54824.809    0.1022E-20
  54824.879    0.9886E-21
  54824.949    0.9408E-21
  54825.019    0.8894E-21
  54825.089    0.8287E-21
  54825.159    0.7035E-21
  54825.229    0.6474E-21
  54825.299    0.6189E-21
  54825.369    0.5974E-21
  54825.439    0.5510E-21
  54825.509    0.5039E-21
  54825.579    0.4641E-21
  54825.649    0.4214E-21
  54825.719    0.3724E-21
  54825.789    0.3375E-21
  54825.859    0.3177E-21
  54825.929    0.2839E-21
  54825.999    0.2647E-21
  54826.069    0.2509E-21
  54826.139    0.2491E-21
  54826.210    0.2508E-21
  54826.280    0.2525E-21
  54826.350    0.2508E-21
  54826.420    0.2354E-21
  54826.490    0.2117E-21
  54826.560    0.1966E-21
  54826.630    0.1801E-21
  54826.700    0.1621E-21
  54826.770    0.1620E-21
  54826.840    0.1555E-21
  54826.910    0.1523E-21
  54826.980    0.1490E-21
  54827.050    0.1426E-21
  54827.120    0.1329E-21
  54827.190    0.1249E-21
  54827.260    0.1217E-21
  54827.330    0.1170E-21
  54827.401    0.1201E-21
  54827.471    0.1376E-21
  54827.541    0.1472E-21
  54827.611    0.1504E-21
  54827.681    0.1488E-21
  54827.751    0.1455E-21
  54827.821    0.1439E-21
  54827.891    0.1551E-21
  54827.961    0.1551E-21
  54828.031    0.1486E-21
  54828.101    0.1438E-21
  54828.171    0.1309E-21
  54828.241    0.1166E-21
  54828.311    0.1134E-21
  54828.381    0.1277E-21
  54828.451    0.1436E-21
  54828.522    0.1452E-21
  54828.592    0.1452E-21
  54828.662    0.1419E-21
  54828.732    0.1419E-21
  54828.802    0.1355E-21
  54828.872    0.1243E-21
  54828.942    0.1195E-21
  54829.012    0.1211E-21
  54829.082    0.1258E-21
  54829.152    0.1179E-21
  54829.222    0.1115E-21
  54829.292    0.1005E-21
  54829.362    0.9891E-22
  54829.432    0.1067E-21
  54829.502    0.1146E-21
  54829.573    0.1114E-21
  54829.643    0.1051E-21
  54829.713    0.1035E-21
  54829.783    0.1066E-21
  54829.853    0.1208E-21
  54829.923    0.1239E-21
  54829.993    0.1366E-21
  54830.063    0.1414E-21
  54830.133    0.1302E-21
  54830.203    0.1222E-21
  54830.273    0.1095E-21
  54830.343    0.9697E-22
  54830.413    0.1001E-21
  54830.483    0.1032E-21
  54830.554    0.1094E-21
  54830.624    0.1063E-21
  54830.694    0.1062E-21
  54830.764    0.1109E-21
  54830.834    0.1220E-21
  54830.904    0.1283E-21
  54830.974    0.1299E-21
  54831.044    0.1314E-21
  54831.114    0.1298E-21
  54831.184    0.1250E-21
  54831.254    0.1202E-21
  54831.324    0.1076E-21
  54831.394    0.1044E-21
  54831.464    0.1201E-21
  54831.535    0.1249E-21
  54831.605    0.1376E-21
  54831.675    0.1408E-21
  54831.745    0.1328E-21
  54831.815    0.1264E-21
  54831.885    0.1311E-21
  54831.955    0.1359E-21
  54832.025    0.1231E-21
  54832.095    0.1167E-21
  54832.165    0.1183E-21
  54832.235    0.1183E-21
  54832.305    0.1182E-21
  54832.376    0.1182E-21
  54832.446    0.1261E-21
  54832.516    0.1389E-21
  54832.586    0.1485E-21
  54832.656    0.1598E-21
  54832.726    0.1712E-21
  54832.796    0.1893E-21
  54832.866    0.1959E-21
  54832.936    0.2059E-21
  54833.006    0.2059E-21
  54833.076    0.1942E-21
  54833.146    0.1991E-21
  54833.217    0.2125E-21
  54833.287    0.2192E-21
  54833.357    0.2344E-21
  54833.427    0.2481E-21
  54833.497    0.2619E-21
  54833.567    0.2846E-21
  54833.637    0.2969E-21
  54833.707    0.3004E-21
  54833.777    0.3022E-21
  54833.847    0.3164E-21
  54833.917    0.3344E-21
  54833.987    0.3508E-21
  54834.058    0.3637E-21
  54834.128    0.3748E-21
  54834.198    0.3860E-21
  54834.268    0.3973E-21
  54834.338    0.4181E-21
  54834.408    0.4451E-21
  54834.478    0.4666E-21
  54834.548    0.4945E-21
  54834.618    0.5187E-21
  54834.688    0.5434E-21
  54834.758    0.5789E-21
  54834.829    0.6262E-21
  54834.899    0.6704E-21
  54834.969    0.7159E-21
  54835.039    0.7603E-21
  54835.109    0.8085E-21
  54835.179    0.8344E-21
  54835.249    0.8993E-21
  54835.319    0.9805E-21
  54835.389    0.1073E-20
  54835.459    0.1171E-20
  54835.529    0.1280E-20
  54835.600    0.1404E-20
  54835.670    0.1542E-20
  54835.740    0.1688E-20
  54835.810    0.1891E-20
  54835.880    0.2098E-20
  54835.950    0.2341E-20
  54836.020    0.2638E-20
  54836.090    0.2962E-20
  54836.160    0.3422E-20
  54836.230    0.4042E-20
  54836.301    0.4530E-20
  54836.371    0.4965E-20
  54836.441    0.5333E-20
  54836.511    0.5911E-20
  54836.581    0.6164E-20
  54836.651    0.6389E-20
  54836.721    0.6450E-20
  54836.791    0.6412E-20
  54836.861    0.6351E-20
  54836.931    0.6272E-20
  54837.002    0.6217E-20
  54837.072    0.6254E-20
  54837.142    0.6262E-20
  54837.212    0.6212E-20
  54837.282    0.6120E-20
  54837.352    0.5952E-20
  54837.422    0.5779E-20
  54837.492    0.5449E-20
  54837.562    0.5215E-20
  54837.632    0.4953E-20
  54837.703    0.4661E-20
  54837.773    0.4326E-20
  54837.843    0.3995E-20
  54837.913    0.3553E-20
  54837.983    0.3089E-20
  54838.053    0.2824E-20
  54838.123    0.2567E-20
  54838.193    0.2338E-20
  54838.263    0.2131E-20
  54838.334    0.1925E-20
  54838.404    0.1685E-20
  54838.474    0.1545E-20
  54838.544    0.1423E-20
  54838.614    0.1314E-20
  54838.684    0.1214E-20
  54838.754    0.1129E-20
  54838.824    0.1048E-20
  54838.894    0.9693E-21
  54838.965    0.8990E-21
  54839.035    0.8345E-21
  54839.105    0.7683E-21
  54839.175    0.7120E-21
  54839.245    0.6598E-21
  54839.315    0.6028E-21
  54839.385    0.5582E-21
  54839.455    0.5292E-21
  54839.525    0.5169E-21
  54839.596    0.5087E-21
  54839.666    0.4805E-21
  54839.736    0.4529E-21
  54839.806    0.4218E-21
  54839.876    0.3932E-21
  54839.946    0.3819E-21
  54840.016    0.3670E-21
  54840.086    0.3559E-21
  54840.156    0.3485E-21
  54840.227    0.3302E-21
  54840.297    0.3050E-21
  54840.367    0.2837E-21
  54840.437    0.2767E-21
  54840.507    0.2714E-21
  54840.577    0.2766E-21
  54840.647    0.2819E-21
  54840.717    0.2661E-21
  54840.787    0.2453E-21
  54840.858    0.2214E-21
  54840.928    0.2096E-21
  54840.998    0.2028E-21
  54841.068    0.1928E-21
  54841.138    0.1911E-21
  54841.208    0.1944E-21
  54841.278    0.2044E-21
  54841.348    0.2077E-21
  54841.419    0.2111E-21
  54841.489    0.2144E-21
  54841.559    0.2161E-21
  54841.629    0.2093E-21
  54841.699    0.1959E-21
  54841.769    0.1793E-21
  54841.839    0.1612E-21
  54841.909    0.1563E-21
  54841.980    0.1563E-21
  54842.050    0.1530E-21
  54842.120    0.1497E-21
  54842.190    0.1449E-21
  54842.260    0.1432E-21
  54842.330    0.1384E-21
  54842.400    0.1239E-21
  54842.470    0.1192E-21
  54842.541    0.1207E-21
  54842.611    0.1207E-21
  54842.681    0.1223E-21
  54842.751    0.1159E-21
  54842.821    0.1222E-21
  54842.891    0.1206E-21
  54842.961    0.1126E-21
  54843.031    0.1031E-21
  54843.102    0.9683E-22
  54843.172    0.9837E-22
  54843.242    0.9992E-22
  54843.312    0.1141E-21
  54843.382    0.1284E-21
  54843.452    0.1251E-21
  54843.522    0.1156E-21
  54843.592    0.9821E-22
  54843.663    0.9193E-22
  54843.733    0.8722E-22
  54843.803    0.8409E-22
  54843.873    0.8873E-22
  54843.943    0.1012E-21
  54844.013    0.1059E-21
  54844.083    0.1090E-21
  54844.153    0.1043E-21
  54844.224    0.8860E-22
  54844.294    0.9169E-22
  54844.364    0.1042E-21
  54844.434    0.1184E-21
  54844.504    0.1263E-21
  54844.574    0.1279E-21
  54844.644    0.1215E-21
  54844.715    0.1135E-21
  54844.785    0.1056E-21
  54844.855    0.9930E-22
  54844.925    0.1008E-21
  54844.995    0.8986E-22
  54845.065    0.8672E-22
  54845.135    0.9137E-22
  54845.205    0.9134E-22
  54845.276    0.8664E-22
  54845.346    0.7885E-22
  54845.416    0.7109E-22
  54845.486    0.7107E-22
  54845.556    0.9121E-22
  54845.626    0.1022E-21
  54845.696    0.9742E-22
  54845.767    0.9896E-22
  54845.837    0.1068E-21
  54845.907    0.1115E-21
  54845.977    0.1146E-21
  54846.047    0.1115E-21
  54846.117    0.1146E-21
  54846.187    0.1146E-21
  54846.258    0.1209E-21
  54846.328    0.1320E-21
  54846.398    0.1401E-21
  54846.468    0.1432E-21
  54846.538    0.1546E-21
  54846.608    0.1627E-21
  54846.678    0.1627E-21
  54846.749    0.1577E-21
  54846.819    0.1528E-21
  54846.889    0.1577E-21
  54846.959    0.1724E-21
  54847.029    0.1872E-21
  54847.099    0.1773E-21
  54847.169    0.1592E-21
  54847.240    0.1413E-21
  54847.310    0.1317E-21
  54847.380    0.1237E-21
  54847.450    0.1157E-21
  54847.520    0.1062E-21
  54847.590    0.9984E-22
  54847.660    0.9354E-22
  54847.731    0.1045E-21
  54847.801    0.1219E-21
  54847.871    0.1251E-21
  54847.941    0.1266E-21
  54848.011    0.1250E-21
  54848.081    0.1234E-21
  54848.152    0.1170E-21
  54848.222    0.1201E-21
  54848.292    0.1249E-21
  54848.362    0.1233E-21
  54848.432    0.1121E-21
  54848.502    0.1026E-21
  54848.572    0.9319E-22
  54848.643    0.9004E-22
  54848.713    0.9941E-22
  54848.783    0.1073E-21
  54848.853    0.1009E-21
  54848.923    0.9306E-22
  54848.993    0.8212E-22
  54849.063    0.8054E-22
  54849.134    0.7741E-22
  54849.204    0.7274E-22
  54849.274    0.7272E-22
  54849.344    0.8198E-22
  54849.414    0.8663E-22
  54849.484    0.8504E-22
  54849.555    0.8035E-22
  54849.625    0.6795E-22
  54849.695    0.6178E-22
  54849.765    0.6329E-22
  54849.835    0.7250E-22
  54849.905    0.7867E-22
  54849.976    0.7399E-22
  54850.046    0.7397E-22
  54850.116    0.8014E-22
  54850.186    0.8789E-22
  54850.256    0.8631E-22
  54850.326    0.8940E-22
  54850.396    0.9094E-22
  54850.467    0.8311E-22
  54850.537    0.8309E-22
  54850.607    0.9555E-22
  54850.677    0.1097E-21
  54850.747    0.1192E-21
  54850.817    0.1176E-21
  54850.888    0.1255E-21
  54850.958    0.1448E-21
  54851.028    0.1577E-21
  54851.098    0.1447E-21
  54851.168    0.1270E-21
  54851.238    0.1190E-21
  54851.309    0.1206E-21
  54851.379    0.1285E-21
  54851.449    0.1365E-21
  54851.519    0.1365E-21
  54851.589    0.1317E-21
  54851.659    0.1188E-21
  54851.730    0.1140E-21
  54851.800    0.1204E-21
  54851.870    0.1251E-21
  54851.940    0.1156E-21
  54852.010    0.1060E-21
  54852.080    0.1044E-21
  54852.151    0.1028E-21
  54852.221    0.9651E-22
  54852.291    0.1012E-21
  54852.361    0.1091E-21
  54852.431    0.1106E-21
  54852.501    0.1106E-21
  54852.572    0.1121E-21
  54852.642    0.1153E-21
  54852.712    0.1169E-21
  54852.782    0.1216E-21
  54852.852    0.1312E-21
  54852.922    0.1376E-21
  54852.993    0.1570E-21
  54853.063    0.1734E-21
  54853.133    0.1832E-21
  54853.203    0.1915E-21
  54853.273    0.1932E-21
  54853.343    0.1931E-21
  54853.414    0.2183E-21
  54853.484    0.2491E-21
  54853.554    0.2665E-21
  54853.624    0.2770E-21
  54853.694    0.2629E-21
  54853.764    0.2577E-21
  54853.835    0.2611E-21
  54853.905    0.2646E-21
  54853.975    0.2680E-21
  54854.045    0.2733E-21
  54854.115    0.2803E-21
  54854.186    0.2873E-21
  54854.256    0.3033E-21
  54854.326    0.2979E-21
  54854.396    0.2749E-21
  54854.466    0.2574E-21
  54854.536    0.2384E-21
  54854.607    0.2315E-21
  54854.677    0.2246E-21
  54854.747    0.2263E-21
  54854.817    0.2297E-21
  54854.887    0.2400E-21
  54854.957    0.2434E-21
  54855.028    0.2211E-21
  54855.098    0.1975E-21
  54855.168    0.1924E-21
  54855.238    0.1974E-21
  54855.308    0.1957E-21
  54855.379    0.1840E-21
  54855.449    0.1675E-21
  54855.519    0.1528E-21
  54855.589    0.1414E-21
  54855.659    0.1333E-21
  54855.729    0.1365E-21
  54855.800    0.1397E-21
  54855.870    0.1365E-21
  54855.940    0.1397E-21
  54856.010    0.1429E-21
  54856.080    0.1380E-21
  54856.151    0.1331E-21
  54856.221    0.1235E-21
  54856.291    0.1107E-21
  54856.361    0.1091E-21
  54856.431    0.1059E-21
  54856.502    0.1043E-21
  54856.572    0.1059E-21
  54856.642    0.1059E-21
  54856.712    0.1137E-21
  54856.782    0.1329E-21
  54856.852    0.1377E-21
  54856.923    0.1361E-21
  54856.993    0.1232E-21
  54857.063    0.1104E-21
  54857.133    0.1009E-21
  54857.203    0.9461E-22
  54857.274    0.8520E-22
  54857.344    0.8050E-22
  54857.414    0.8203E-22
  54857.484    0.9294E-22
  54857.554    0.1087E-21
  54857.625    0.1102E-21
  54857.695    0.1118E-21
  54857.765    0.1086E-21
  54857.835    0.1245E-21
  54857.905    0.1502E-21
  54857.975    0.1551E-21
  54858.046    0.1437E-21
  54858.116    0.1260E-21
  54858.186    0.1132E-21
  54858.256    0.1100E-21
  54858.326    0.1052E-21
  54858.397    0.9416E-22
  54858.467    0.8631E-22
  54858.537    0.9097E-22
  54858.607    0.9565E-22
  54858.677    0.1051E-21
  54858.748    0.1130E-21
  54858.818    0.1161E-21
  54858.888    0.1113E-21
  54858.958    0.1145E-21
  54859.028    0.1129E-21
  54859.099    0.1224E-21
  54859.169    0.1240E-21
  54859.239    0.1160E-21
  54859.309    0.1001E-21
  54859.379    0.1017E-21
  54859.450    0.1127E-21
  54859.520    0.1335E-21
  54859.590    0.1431E-21
  54859.660    0.1350E-21
  54859.730    0.1174E-21
  54859.801    0.9992E-22
  54859.871    0.1015E-21
  54859.941    0.1093E-21
  54860.011    0.1333E-21
  54860.081    0.1478E-21
  54860.152    0.1510E-21
  54860.222    0.1461E-21
  54860.292    0.1332E-21
  54860.362    0.1267E-21
  54860.432    0.1235E-21
  54860.503    0.1107E-21
  54860.573    0.1059E-21
  54860.643    0.1075E-21
  54860.713    0.1027E-21
  54860.783    0.9797E-22
  54860.854    0.9794E-22
  54860.924    0.1011E-21
  54860.994    0.1010E-21
  54861.064    0.1089E-21
  54861.134    0.1089E-21
  54861.205    0.9938E-22
  54861.275    0.9464E-22
  54861.345    0.1041E-21
  54861.415    0.1151E-21
  54861.486    0.1231E-21
  54861.556    0.1343E-21
  54861.626    0.1488E-21
  54861.696    0.1488E-21
  54861.766    0.1537E-21
  54861.837    0.1684E-21
  54861.907    0.1766E-21
  54861.977    0.1667E-21
  54862.047    0.1536E-21
  54862.117    0.1486E-21
  54862.188    0.1437E-21
  54862.258    0.1372E-21
  54862.328    0.1469E-21
  54862.398    0.1649E-21
  54862.468    0.1797E-21
  54862.539    0.1947E-21
  54862.609    0.1980E-21
  54862.679    0.2030E-21
  54862.749    0.2080E-21
  54862.820    0.2029E-21
  54862.890    0.2012E-21
  54862.960    0.2029E-21
  54863.030    0.2164E-21
  54863.100    0.2368E-21
  54863.171    0.2646E-21
  54863.241    0.2733E-21
  54863.311    0.2750E-21
  54863.381    0.2856E-21
  54863.451    0.2909E-21
  54863.522    0.2998E-21
  54863.592    0.3016E-21
  54863.662    0.3033E-21
  54863.732    0.3033E-21
  54863.803    0.2997E-21
  54863.873    0.3014E-21
  54863.943    0.3032E-21
  54864.013    0.2996E-21
  54864.083    0.2978E-21
  54864.154    0.2978E-21
  54864.224    0.3049E-21
  54864.294    0.3067E-21
  54864.364    0.2888E-21
  54864.435    0.2606E-21
  54864.505    0.2380E-21
  54864.575    0.2328E-21
  54864.645    0.2345E-21
  54864.715    0.2414E-21
  54864.786    0.2552E-21
  54864.856    0.2431E-21
  54864.926    0.2225E-21
  54864.996    0.2122E-21
  54865.067    0.2038E-21
  54865.137    0.1953E-21
  54865.207    0.2003E-21
  54865.277    0.2104E-21
  54865.347    0.2104E-21
  54865.418    0.2121E-21
  54865.488    0.2070E-21
  54865.558    0.1885E-21
  54865.628    0.1538E-21
  54865.699    0.1392E-21
  54865.769    0.1375E-21
  54865.839    0.1472E-21
  54865.909    0.1586E-21
  54865.979    0.1652E-21
  54866.050    0.1635E-21
  54866.120    0.1667E-21
  54866.190    0.1733E-21
  54866.260    0.1799E-21
  54866.331    0.1849E-21
  54866.401    0.1848E-21
  54866.471    0.1798E-21
  54866.541    0.1666E-21
  54866.611    0.1699E-21
  54866.682    0.1814E-21
  54866.752    0.1964E-21
  54866.822    0.2048E-21
  54866.892    0.2064E-21
  54866.963    0.2132E-21
  54867.033    0.2115E-21
  54867.103    0.2013E-21
  54867.173    0.1929E-21
  54867.244    0.1879E-21
  54867.314    0.1962E-21
  54867.384    0.2046E-21
  54867.454    0.2113E-21
  54867.525    0.2147E-21
  54867.595    0.2146E-21
  54867.665    0.2129E-21
  54867.735    0.2180E-21
  54867.805    0.2299E-21
  54867.876    0.2419E-21
  54867.946    0.2436E-21
  54868.016    0.2367E-21
  54868.086    0.2281E-21
  54868.157    0.2212E-21
  54868.227    0.2212E-21
  54868.297    0.2212E-21
  54868.367    0.2297E-21
  54868.438    0.2348E-21
  54868.508    0.2348E-21
  54868.578    0.2434E-21
  54868.648    0.2748E-21
  54868.719    0.2907E-21
  54868.789    0.2978E-21
  54868.859    0.2888E-21
  54868.929    0.2799E-21
  54868.999    0.2764E-21
  54869.070    0.2746E-21
  54869.140    0.2923E-21
  54869.210    0.3174E-21
  54869.280    0.3411E-21
  54869.351    0.3559E-21
  54869.421    0.3633E-21
  54869.491    0.3688E-21
  54869.561    0.3838E-21
  54869.632    0.4105E-21
  54869.702    0.4317E-21
  54869.772    0.4513E-21
  54869.842    0.4711E-21
  54869.913    0.5033E-21
  54869.983    0.5320E-21
  54870.053    0.5487E-21
  54870.123    0.5804E-21
  54870.194    0.6084E-21
  54870.264    0.6281E-21
  54870.334    0.6502E-21
  54870.404    0.6659E-21
  54870.475    0.6614E-21
  54870.545    0.6479E-21
  54870.615    0.6412E-21
  54870.685    0.6390E-21
  54870.756    0.6411E-21
  54870.826    0.6345E-21
  54870.896    0.6256E-21
  54870.966    0.6146E-21
  54871.037    0.5929E-21
  54871.107    0.5779E-21
  54871.177    0.5693E-21
  54871.247    0.5545E-21
  54871.318    0.5232E-21
  54871.388    0.5048E-21
  54871.458    0.4946E-21
  54871.528    0.4945E-21
  54871.599    0.4864E-21
  54871.669    0.4744E-21
  54871.739    0.4783E-21
  54871.809    0.4864E-21
  54871.880    0.4924E-21
  54871.950    0.5005E-21
  54872.020    0.4944E-21
  54872.090    0.4822E-21
  54872.161    0.4762E-21
  54872.231    0.4943E-21
  54872.301    0.5126E-21
  54872.371    0.5290E-21
  54872.442    0.5311E-21
  54872.512    0.5331E-21
  54872.582    0.5498E-21
  54872.652    0.5666E-21
  54872.723    0.5837E-21
  54872.793    0.5901E-21
  54872.863    0.5987E-21
  54872.933    0.6205E-21
  54873.004    0.6492E-21
  54873.074    0.6785E-21
  54873.144    0.7014E-21
  54873.214    0.7269E-21
  54873.285    0.7553E-21
  54873.355    0.7769E-21
  54873.425    0.7964E-21
  54873.496    0.8335E-21
  54873.566    0.8220E-21
  54873.636    0.8746E-21
  54873.706    0.9269E-21
  54873.777    0.9789E-21
  54873.847    0.1031E-20
  54873.917    0.1088E-20
  54873.987    0.1158E-20
  54874.058    0.1241E-20
  54874.128    0.1350E-20
  54874.198    0.1484E-20
  54874.268    0.1632E-20
  54874.339    0.1853E-20
  54874.409    0.2065E-20
  54874.479    0.2309E-20
  54874.549    0.2613E-20
  54874.620    0.2941E-20
  54874.690    0.3354E-20
  54874.760    0.3772E-20
  54874.831    0.4127E-20
  54874.901    0.4628E-20
  54874.971    0.5092E-20
  54875.041    0.5505E-20
  54875.112    0.6110E-20
  54875.182    0.6371E-20
  54875.252    0.6544E-20
  54875.322    0.6592E-20
  54875.393    0.6632E-20
  54875.463    0.6580E-20
  54875.533    0.6500E-20
  54875.603    0.6395E-20
  54875.674    0.6324E-20
  54875.744    0.6337E-20
  54875.814    0.6339E-20
  54875.885    0.6288E-20
  54875.955    0.6206E-20
  54876.025    0.6078E-20
  54876.095    0.5937E-20
  54876.166    0.5775E-20
  54876.236    0.5397E-20
  54876.306    0.5164E-20
  54876.376    0.4901E-20
  54876.447    0.4577E-20
  54876.517    0.4254E-20
  54876.587    0.3934E-20
  54876.658    0.3632E-20
  54876.728    0.3006E-20
  54876.798    0.2777E-20
  54876.868    0.2567E-20
  54876.939    0.2355E-20
  54877.009    0.2159E-20
  54877.079    0.1976E-20
  54877.149    0.1885E-20
  54877.220    0.1743E-20
  54877.290    0.1601E-20
  54877.360    0.1499E-20
  54877.431    0.1405E-20
  54877.501    0.1328E-20
  54877.571    0.1270E-20
  54877.641    0.1209E-20
  54877.712    0.1151E-20
  54877.782    0.1087E-20
  54877.852    0.1024E-20
  54877.923    0.9616E-21
  54877.993    0.9149E-21
  54878.063    0.8825E-21
  54878.133    0.8513E-21
  54878.204    0.8137E-21
  54878.274    0.7929E-21
  54878.344    0.7968E-21
  54878.414    0.8113E-21
  54878.485    0.8200E-21
  54878.555    0.8330E-21
  54878.625    0.8494E-21
  54878.696    0.8507E-21
  54878.766    0.8529E-21
  54878.836    0.8447E-21
  54878.906    0.8331E-21
  54878.977    0.8245E-21
  54879.047    0.8100E-21
  54879.117    0.7931E-21
  54879.188    0.7723E-21
  54879.258    0.7795E-21
  54879.328    0.7941E-21
  54879.398    0.7990E-21
  54879.469    0.8014E-21
  54879.539    0.7965E-21
  54879.609    0.7818E-21
  54879.680    0.7624E-21
  54879.750    0.7268E-21
  54879.820    0.6919E-21
  54879.890    0.6691E-21
  54879.961    0.6600E-21
  54880.031    0.6781E-21
  54880.101    0.6804E-21
  54880.172    0.6554E-21
  54880.242    0.6331E-21
  54880.312    0.6309E-21
  54880.382    0.6330E-21
  54880.453    0.6352E-21
  54880.523    0.6530E-21
  54880.593    0.6688E-21
  54880.664    0.6916E-21
  54880.734    0.7077E-21
  54880.804    0.7170E-21
  54880.875    0.7100E-21
  54880.945    0.6984E-21
  54881.015    0.7053E-21
  54881.085    0.7169E-21
  54881.156    0.7333E-21
  54881.226    0.7451E-21
  54881.296    0.7594E-21
  54881.367    0.7739E-21
  54881.437    0.7811E-21
  54881.507    0.7933E-21
  54881.577    0.7957E-21
  54881.648    0.7982E-21
  54881.718    0.7932E-21
  54881.788    0.7786E-21
  54881.859    0.7688E-21
  54881.929    0.7858E-21
  54881.999    0.8005E-21
  54882.070    0.8027E-21
  54882.140    0.8203E-21
  54882.210    0.8346E-21
  54882.280    0.8467E-21
  54882.351    0.8687E-21
  54882.421    0.8970E-21
  54882.491    0.9088E-21
  54882.562    0.9324E-21
  54882.632    0.9557E-21
  54882.702    0.9824E-21
  54882.773    0.1026E-20
  54882.843    0.1059E-20
  54882.913    0.1085E-20
  54882.983    0.1127E-20
  54883.054    0.1178E-20
  54883.124    0.1223E-20
  54883.194    0.1261E-20
  54883.265    0.1278E-20
  54883.335    0.1310E-20
  54883.405    0.1333E-20
  54883.476    0.1357E-20
  54883.546    0.1399E-20
  54883.616    0.1451E-20
  54883.686    0.1499E-20
  54883.757    0.1553E-20
  54883.827    0.1625E-20
  54883.897    0.1717E-20
  54883.968    0.1804E-20
  54884.038    0.1880E-20
  54884.108    0.1970E-20
  54884.179    0.2065E-20
  54884.249    0.2197E-20
  54884.319    0.2331E-20
  54884.389    0.2447E-20
  54884.460    0.2554E-20
  54884.530    0.2674E-20
  54884.600    0.2793E-20
  54884.671    0.2958E-20
  54884.741    0.3124E-20
  54884.811    0.3399E-20
  54884.882    0.3680E-20
  54884.952    0.3914E-20
  54885.022    0.4244E-20
  54885.093    0.4602E-20
  54885.163    0.5011E-20
  54885.233    0.5409E-20
  54885.304    0.6060E-20
  54885.374    0.6524E-20
  54885.444    0.7071E-20
  54885.514    0.7629E-20
  54885.585    0.8462E-20
  54885.655    0.9459E-20
  54885.725    0.1062E-19
  54885.796    0.1189E-19
  54885.866    0.1349E-19
  54885.936    0.1511E-19
  54886.007    0.1729E-19
  54886.077    0.1919E-19
  54886.147    0.2101E-19
  54886.218    0.2270E-19
  54886.288    0.2423E-19
  54886.358    0.2537E-19
  54886.429    0.2685E-19
  54886.499    0.2733E-19
  54886.569    0.2768E-19
  54886.639    0.2773E-19
  54886.710    0.2762E-19
  54886.780    0.2736E-19
  54886.850    0.2698E-19
  54886.921    0.2667E-19
  54886.991    0.2635E-19
  54887.061    0.2527E-19
  54887.132    0.2462E-19
  54887.202    0.2364E-19
  54887.272    0.2246E-19
  54887.343    0.2099E-19
  54887.413    0.1951E-19
  54887.483    0.1814E-19
  54887.554    0.1676E-19
  54887.624    0.1520E-19
  54887.694    0.1261E-19
  54887.765    0.1146E-19
  54887.835    0.1036E-19
  54887.905    0.9314E-20
  54887.976    0.8397E-20
  54888.046    0.7592E-20
  54888.116    0.6625E-20
  54888.187    0.6127E-20
  54888.257    0.5478E-20
  54888.327    0.5034E-20
  54888.398    0.4617E-20
  54888.468    0.4278E-20
  54888.538    0.3979E-20
  54888.608    0.3726E-20
  54888.679    0.3381E-20
  54888.749    0.3083E-20
  54888.819    0.2882E-20
  54888.890    0.2675E-20
  54888.960    0.2501E-20
  54889.030    0.2355E-20
  54889.101    0.2219E-20
  54889.171    0.2105E-20
  54889.241    0.1995E-20
  54889.312    0.1881E-20
  54889.382    0.1816E-20
  54889.452    0.1723E-20
  54889.523    0.1627E-20
  54889.593    0.1548E-20
  54889.663    0.1495E-20
  54889.734    0.1445E-20
  54889.804    0.1402E-20
  54889.874    0.1343E-20
  54889.945    0.1287E-20
  54890.015    0.1247E-20
  54890.085    0.1207E-20
  54890.156    0.1184E-20
  54890.226    0.1156E-20
  54890.296    0.1111E-20
  54890.367    0.1065E-20
  54890.437    0.1011E-20
  54890.507    0.9644E-21
  54890.578    0.9431E-21
  54890.648    0.9297E-21
  54890.718    0.9228E-21
  54890.789    0.9143E-21
  54890.859    0.9082E-21
  54890.929    0.9082E-21
  54891.000    0.9008E-21
  54891.070    0.8816E-21
  54891.140    0.8584E-21
  54891.211    0.8336E-21
  54891.281    0.8133E-21
  54891.351    0.8022E-21
  54891.422    0.8028E-21
  54891.492    0.8004E-21
  54891.562    0.7961E-21
  54891.633    0.8166E-21
  54891.703    0.8116E-21
  54891.773    0.7992E-21
  54891.844    0.7967E-21
  54891.914    0.8115E-21
  54891.984    0.8080E-21
  54892.055    0.8165E-21
  54892.125    0.8074E-21
  54892.195    0.8264E-21
  54892.266    0.8214E-21
  54892.336    0.8089E-21
  54892.407    0.8039E-21
  54892.477    0.8088E-21
  54892.547    0.8238E-21
  54892.618    0.8439E-21
  54892.688    0.7981E-21
  54892.758    0.8111E-21
  54892.829    0.8217E-21
  54892.899    0.8362E-21
  54892.969    0.8541E-21
  54893.040    0.8917E-21
  54893.110    0.9090E-21
  54893.180    0.9068E-21
  54893.251    0.8936E-21
  54893.321    0.8765E-21
  54893.391    0.8560E-21
  54893.462    0.8354E-21
  54893.532    0.8226E-21
  54893.602    0.8194E-21
  54893.673    0.8065E-21
  54893.743    0.7940E-21
  54893.813    0.7285E-21
  54893.884    0.7120E-21
  54893.954    0.7167E-21
  54894.024    0.7073E-21
  54894.095    0.6865E-21
  54894.165    0.6659E-21
  54894.236    0.6545E-21
  54894.306    0.6455E-21
  54894.376    0.6388E-21
  54894.447    0.6388E-21
  54894.517    0.6232E-21
  54894.587    0.5947E-21
  54894.658    0.5646E-21
  54894.728    0.5477E-21
  54894.798    0.5392E-21
  54894.869    0.5434E-21
  54894.939    0.5434E-21
  54895.009    0.5266E-21
  54895.080    0.5224E-21
  54895.150    0.5183E-21
  54895.220    0.5059E-21
  54895.291    0.4956E-21
  54895.361    0.4915E-21
  54895.432    0.4935E-21
  54895.502    0.5119E-21
  54895.572    0.5264E-21
  54895.643    0.5368E-21
  54895.713    0.5431E-21
  54895.783    0.5305E-21
  54895.854    0.5159E-21
  54895.924    0.5097E-21
  54895.994    0.5035E-21
  54896.065    0.4953E-21
  54896.135    0.4892E-21
  54896.205    0.4750E-21
  54896.276    0.4610E-21
  54896.346    0.4510E-21
  54896.417    0.4510E-21
  54896.487    0.4629E-21
  54896.557    0.4669E-21
  54896.628    0.4809E-21
  54896.698    0.4951E-21
  54896.768    0.5156E-21
  54896.839    0.5426E-21
  54896.909    0.5659E-21
  54896.979    0.5616E-21
  54897.050    0.5594E-21
  54897.120    0.5637E-21
  54897.191    0.5829E-21
  54897.261    0.6002E-21
  54897.331    0.6067E-21
  54897.402    0.6155E-21
  54897.472    0.6309E-21
  54897.542    0.6510E-21
  54897.613    0.6782E-21
  54897.683    0.7246E-21
  54897.753    0.7579E-21
  54897.824    0.7846E-21
  54897.894    0.8117E-21
  54897.965    0.8393E-21
  54898.035    0.8077E-21
  54898.105    0.8404E-21
  54898.176    0.8859E-21
  54898.246    0.9189E-21
  54898.316    0.9437E-21
  54898.387    0.9657E-21
  54898.457    0.9854E-21
  54898.527    0.1005E-20
  54898.598    0.1016E-20
  54898.668    0.1023E-20
  54898.739    0.1028E-20
  54898.809    0.1020E-20
  54898.879    0.1008E-20
  54898.950    0.1000E-20
  54899.020    0.1002E-20
  54899.090    0.1007E-20
  54899.161    0.9933E-21
  54899.231    0.9666E-21
  54899.302    0.9269E-21
  54899.372    0.8884E-21
  54899.442    0.8516E-21
  54899.513    0.8043E-21
  54899.583    0.7839E-21
  54899.653    0.7596E-21
  54899.724    0.7476E-21
  54899.794    0.7452E-21
  54899.865    0.7547E-21
  54899.935    0.7427E-21
  54900.005    0.7214E-21
  54900.076    0.6865E-21
  54900.146    0.6545E-21
  54900.216    0.6255E-21
  54900.287    0.5947E-21
  54900.357    0.5688E-21
  54900.428    0.5455E-21
  54900.498    0.5287E-21
  54900.568    0.5079E-21
  54900.639    0.4916E-21
  54900.709    0.4875E-21
  54900.779    0.4813E-21
  54900.850    0.4753E-21
  54900.920    0.4976E-21
  54900.991    0.5140E-21
  54901.061    0.5285E-21
  54901.131    0.5431E-21
  54901.202    0.5431E-21
  54901.272    0.5409E-21
  54901.342    0.5325E-21
  54901.413    0.5097E-21
  54901.483    0.4811E-21
  54901.554    0.4590E-21
  54901.624    0.4549E-21
  54901.694    0.4509E-21
  54901.765    0.4529E-21
  54901.835    0.4588E-21
  54901.906    0.4548E-21
  54901.976    0.4568E-21
  54902.046    0.4628E-21
  54902.117    0.4627E-21
  54902.187    0.4647E-21
  54902.257    0.4687E-21
  54902.328    0.4687E-21
  54902.398    0.4706E-21
  54902.469    0.4807E-21
  54902.539    0.4929E-21
  54902.609    0.5051E-21
  54902.680    0.5133E-21
  54902.750    0.5051E-21
  54902.821    0.4826E-21
  54902.891    0.4745E-21
  54902.961    0.4805E-21
  54903.025    0.4773E-21
  54903.094    0.4828E-21
  54903.164    0.4919E-21
  54903.234    0.5049E-21
  54903.304    0.4974E-21
  54903.373    0.4827E-21
  54903.443    0.4681E-21
  54903.513    0.4644E-21
  54903.583    0.4662E-21
  54903.652    0.4771E-21
  54903.722    0.4899E-21
  54903.792    0.5103E-21
  54903.862    0.5347E-21
  54903.931    0.5557E-21
  54904.001    0.5711E-21
  54904.071    0.5614E-21
  54904.141    0.5537E-21
  54904.210    0.5556E-21
  54904.280    0.5537E-21
  54904.350    0.5575E-21
  54904.420    0.5768E-21
  54904.489    0.6102E-21
  54904.559    0.6362E-21
  54904.629    0.6647E-21
  54904.699    0.7022E-21
  54904.768    0.7255E-21
  54904.838    0.7448E-21
  54904.908    0.7621E-21
  54904.978    0.7731E-21
  54905.048    0.7863E-21
  54905.117    0.8177E-21
  54905.187    0.8473E-21
  54905.257    0.8705E-21
  54905.327    0.9108E-21
  54905.396    0.9447E-21
  54905.466    0.9768E-21
  54905.536    0.1015E-20
  54905.606    0.1041E-20
  54905.675    0.1056E-20
  54905.745    0.1075E-20
  54905.815    0.1088E-20
  54905.885    0.1093E-20
  54905.954    0.1088E-20
  54906.024    0.1083E-20
  54906.094    0.1069E-20
  54906.164    0.1059E-20
  54906.234    0.1064E-20
  54906.303    0.1072E-20
  54906.373    0.1051E-20
  54906.443    0.1014E-20
  54906.513    0.9740E-21
  54906.582    0.9248E-21
  54906.652    0.8865E-21
  54906.722    0.8561E-21
  54906.792    0.8399E-21
  54906.861    0.8422E-21
  54906.931    0.8422E-21
  54907.001    0.8467E-21
  54907.071    0.8421E-21
  54907.141    0.8238E-21
  54907.210    0.8035E-21
  54907.280    0.7834E-21
  54907.350    0.7548E-21
  54907.420    0.7246E-21
  54907.489    0.6970E-21
  54907.559    0.6720E-21
  54907.629    0.6576E-21
  54907.699    0.6535E-21
  54907.768    0.6474E-21
  54907.838    0.6412E-21
  54907.908    0.6432E-21
  54907.978    0.6473E-21
  54908.048    0.6493E-21
  54908.117    0.6595E-21
  54908.187    0.6864E-21
  54908.257    0.6989E-21
  54908.327    0.7052E-21
  54908.396    0.7115E-21
  54908.466    0.7157E-21
  54908.536    0.7221E-21
  54908.606    0.7221E-21
  54908.676    0.7242E-21
  54908.745    0.7242E-21
  54908.815    0.7306E-21
  54908.885    0.7435E-21
  54908.955    0.7762E-21
  54909.024    0.8141E-21
  54909.094    0.8484E-21
  54909.164    0.8834E-21
  54909.234    0.9095E-21
  54909.304    0.9215E-21
  54909.373    0.9167E-21
  54909.443    0.9215E-21
  54909.513    0.9458E-21
  54909.583    0.9830E-21
  54909.653    0.1026E-20
  54909.722    0.1081E-20
  54909.792    0.1141E-20
  54909.862    0.1195E-20
  54909.932    0.1233E-20
  54910.001    0.1271E-20
  54910.071    0.1176E-20
  54910.141    0.1215E-20
  54910.211    0.1249E-20
  54910.281    0.1284E-20
  54910.350    0.1331E-20
  54910.420    0.1361E-20
  54910.490    0.1379E-20
  54910.560    0.1396E-20
  54910.630    0.1400E-20
  54910.699    0.1399E-20
  54910.769    0.1395E-20
  54910.839    0.1392E-20
  54910.909    0.1373E-20
  54910.978    0.1344E-20
  54911.048    0.1321E-20
  54911.118    0.1271E-20
  54911.188    0.1219E-20
  54911.258    0.1188E-20
  54911.327    0.1166E-20
  54911.397    0.1119E-20
  54911.467    0.1092E-20
  54911.537    0.1073E-20
  54911.607    0.1036E-20
  54911.676    0.9975E-21
  54911.746    0.9773E-21
  54911.816    0.9624E-21
  54911.886    0.9451E-21
  54911.956    0.9377E-21
  54912.025    0.9401E-21
  54912.095    0.9303E-21
  54912.165    0.9158E-21
  54912.235    0.9110E-21
  54912.305    0.9109E-21
  54912.374    0.9085E-21
  54912.444    0.9037E-21
  54912.514    0.8870E-21
  54912.584    0.8705E-21
  54912.654    0.8752E-21
  54912.723    0.8893E-21
  54912.793    0.9060E-21
  54912.863    0.9156E-21
  54912.933    0.9180E-21
  54913.003    0.9203E-21
  54913.072    0.9252E-21
  54913.142    0.9373E-21
  54913.212    0.9397E-21
  54913.282    0.9275E-21
  54913.352    0.9058E-21
  54913.421    0.9010E-21
  54913.491    0.9154E-21
  54913.561    0.9470E-21
  54913.631    0.9792E-21
  54913.701    0.9969E-21
  54913.770    0.1010E-20
  54913.840    0.1035E-20
  54913.910    0.1046E-20
  54913.980    0.1059E-20
  54914.050    0.1054E-20
  54914.119    0.1048E-20
  54914.189    0.1043E-20
  54914.259    0.1040E-20
  54914.329    0.1048E-20
  54914.399    0.1075E-20
  54914.468    0.1101E-20
  54914.538    0.1115E-20
  54914.608    0.1129E-20
  54914.678    0.1142E-20
  54914.748    0.1162E-20
  54914.817    0.1173E-20
  54914.887    0.1190E-20
  54914.957    0.1167E-20
  54915.027    0.1192E-20
  54915.097    0.1220E-20
  54915.167    0.1255E-20
  54915.236    0.1283E-20
  54915.306    0.1318E-20
  54915.376    0.1340E-20
  54915.446    0.1354E-20
  54915.516    0.1389E-20
  54915.585    0.1440E-20
  54915.655    0.1497E-20
  54915.725    0.1566E-20
  54915.795    0.1636E-20
  54915.865    0.1714E-20
  54915.934    0.1782E-20
  54916.004    0.1856E-20
  54916.074    0.1927E-20
  54916.144    0.1989E-20
  54916.214    0.2026E-20
  54916.284    0.2053E-20
  54916.353    0.2097E-20
  54916.423    0.2125E-20
  54916.493    0.2164E-20
  54916.563    0.2186E-20
  54916.633    0.2198E-20
  54916.702    0.2225E-20
  54916.772    0.2267E-20
  54916.842    0.2334E-20
  54916.912    0.2389E-20
  54916.982    0.2435E-20
  54917.052    0.2465E-20
  54917.121    0.2460E-20
  54917.191    0.2440E-20
  54917.261    0.2452E-20
  54917.331    0.2466E-20
  54917.401    0.2488E-20
  54917.470    0.2536E-20
  54917.540    0.2577E-20
  54917.610    0.2614E-20
  54917.680    0.2668E-20
  54917.750    0.2718E-20
  54917.820    0.2760E-20
  54917.889    0.2818E-20
  54917.959    0.2907E-20
  54918.029    0.3026E-20
  54918.099    0.3128E-20
  54918.169    0.3192E-20
  54918.238    0.3317E-20
  54918.308    0.3431E-20
  54918.378    0.3535E-20
  54918.448    0.3712E-20
  54918.518    0.3936E-20
  54918.588    0.4167E-20
  54918.657    0.4436E-20
  54918.727    0.4750E-20
  54918.797    0.5115E-20
  54918.867    0.5565E-20
  54918.937    0.6111E-20
  54919.007    0.6620E-20
  54919.076    0.7355E-20
  54919.146    0.8264E-20
  54919.216    0.9229E-20
  54919.286    0.1043E-19
  54919.356    0.1171E-19
  54919.426    0.1298E-19
  54919.495    0.1434E-19
  54919.565    0.1726E-19
  54919.635    0.1908E-19
  54919.705    0.2230E-19
  54919.775    0.2409E-19
  54919.845    0.2579E-19
  54919.914    0.2680E-19
  54919.984    0.2740E-19
  54920.054    0.2776E-19
  54920.124    0.2784E-19
  54920.194    0.2769E-19
  54920.264    0.2746E-19
  54920.333    0.2724E-19
  54920.403    0.2756E-19
  54920.473    0.2802E-19
  54920.543    0.2817E-19
  54920.613    0.2815E-19
  54920.683    0.2775E-19
  54920.752    0.2720E-19
  54920.822    0.2627E-19
  54920.892    0.2500E-19
  54920.962    0.2376E-19
  54921.032    0.2233E-19
  54921.102    0.2085E-19
  54921.171    0.1885E-19
  54921.241    0.1750E-19
  54921.311    0.1634E-19
  54921.381    0.1506E-19
  54921.451    0.1382E-19
  54921.521    0.1258E-19
  54921.590    0.1155E-19
  54921.660    0.1061E-19
  54921.730    0.9763E-20
  54921.800    0.9020E-20
  54921.870    0.7798E-20
  54921.940    0.7145E-20
  54922.010    0.6681E-20
  54922.079    0.6014E-20
  54922.149    0.5659E-20
  54922.219    0.5324E-20
  54922.289    0.5032E-20
  54922.359    0.4747E-20
  54922.429    0.4475E-20
  54922.498    0.4224E-20
  54922.568    0.4028E-20
  54922.638    0.3870E-20
  54922.708    0.3738E-20
  54922.778    0.3572E-20
  54922.848    0.3427E-20
  54922.918    0.3322E-20
  54922.987    0.3281E-20
  54923.057    0.3187E-20
  54923.127    0.3094E-20
  54923.197    0.3017E-20
  54923.267    0.2942E-20
  54923.337    0.2880E-20
  54923.406    0.2930E-20
  54923.476    0.2866E-20
  54923.546    0.2795E-20
  54923.616    0.2737E-20
  54923.686    0.2692E-20
  54923.756    0.2646E-20
  54923.826    0.2628E-20
  54923.895    0.2620E-20
  54923.965    0.2630E-20
  54924.035    0.2661E-20
  54924.105    0.2675E-20
  54924.175    0.2666E-20
  54924.245    0.2649E-20
  54924.315    0.2640E-20
  54924.384    0.2628E-20
  54924.454    0.2635E-20
  54924.524    0.2649E-20
  54924.594    0.2668E-20
  54924.664    0.2687E-20
  54924.734    0.2725E-20
  54924.804    0.2772E-20
  54924.873    0.2830E-20
  54924.943    0.2896E-20
  54925.013    0.2937E-20
  54925.083    0.2927E-20
  54925.153    0.2979E-20
  54925.223    0.3041E-20
  54925.293    0.3139E-20
  54925.362    0.3107E-20
  54925.432    0.3195E-20
  54925.502    0.3279E-20
  54925.572    0.3303E-20
  54925.642    0.3357E-20
  54925.712    0.3436E-20
  54925.782    0.3512E-20
  54925.851    0.3553E-20
  54925.921    0.3635E-20
  54925.991    0.3729E-20
  54926.061    0.3796E-20
  54926.131    0.3903E-20
  54926.201    0.4033E-20
  54926.271    0.4137E-20
  54926.341    0.4198E-20
  54926.410    0.4267E-20
  54926.480    0.4379E-20
  54926.550    0.4494E-20
  54926.620    0.4585E-20
  54926.690    0.4673E-20
  54926.760    0.4747E-20
  54926.830    0.4832E-20
  54926.899    0.4941E-20
  54926.969    0.5109E-20
  54927.039    0.5311E-20
  54927.109    0.5508E-20
  54927.179    0.5718E-20
  54927.249    0.5959E-20
  54927.319    0.6182E-20
  54927.389    0.6368E-20
  54927.458    0.6544E-20
  54927.528    0.6835E-20
  54927.598    0.7093E-20
  54927.668    0.7318E-20
  54927.738    0.7578E-20
  54927.808    0.7888E-20
  54927.878    0.8267E-20
  54927.947    0.8687E-20
  54928.017    0.9132E-20
  54928.087    0.9579E-20
  54928.157    0.1017E-19
  54928.227    0.1074E-19
  54928.297    0.1136E-19
  54928.367    0.1214E-19
  54928.437    0.1302E-19
  54928.506    0.1393E-19
  54928.576    0.1492E-19
  54928.646    0.1675E-19
  54928.716    0.1828E-19
  54928.786    0.2118E-19
  54928.856    0.2356E-19
  54928.926    0.2648E-19
  54928.996    0.2970E-19
  54929.065    0.3332E-19
  54929.135    0.3713E-19
  54929.205    0.4326E-19
  54929.275    0.5143E-19
  54929.345    0.5819E-19
  54929.415    0.6459E-19
  54929.485    0.7044E-19
  54929.555    0.7573E-19
  54929.625    0.8080E-19
  54929.694    0.8538E-19
  54929.764    0.8890E-19
  54929.834    0.9185E-19
  54929.904    0.9336E-19
  54929.974    0.9421E-19
  54930.044    0.9401E-19
  54930.114    0.9192E-19
  54930.184    0.8950E-19
  54930.253    0.8643E-19
  54930.323    0.8322E-19
  54930.393    0.7942E-19
  54930.463    0.7490E-19
  54930.533    0.6999E-19
  54930.603    0.6432E-19
  54930.673    0.5823E-19
  54930.743    0.5270E-19
  54930.813    0.4525E-19
  54930.882    0.3984E-19
  54930.952    0.3596E-19
  54931.022    0.3223E-19
  54931.092    0.2902E-19
  54931.162    0.2629E-19
  54931.232    0.2426E-19
  54931.302    0.2247E-19
  54931.372    0.2059E-19
  54931.442    0.1818E-19
  54931.511    0.1687E-19
  54931.581    0.1470E-19
  54931.651    0.1366E-19
  54931.721    0.1291E-19
  54931.791    0.1228E-19
  54931.861    0.1166E-19
  54931.931    0.1101E-19
  54932.001    0.1037E-19
  54932.071    0.9756E-20
  54932.140    0.9246E-20
  54932.210    0.8676E-20
  54932.280    0.8265E-20
  54932.350    0.7626E-20
  54932.420    0.7358E-20
  54932.490    0.7111E-20
  54932.560    0.6830E-20
  54932.630    0.6347E-20
  54932.700    0.6033E-20
  54932.769    0.5732E-20
  54932.839    0.5503E-20
  54932.909    0.5320E-20
  54932.979    0.5151E-20
  54933.049    0.4999E-20
  54933.119    0.4875E-20
  54933.189    0.4716E-20
  54933.259    0.4583E-20
  54933.329    0.4472E-20
  54933.399    0.4353E-20
  54933.468    0.4282E-20
  54933.538    0.4230E-20
  54933.608    0.4209E-20
  54933.678    0.4199E-20
  54933.748    0.4197E-20
  54933.818    0.4183E-20
  54933.888    0.4083E-20
  54933.958    0.3946E-20
  54934.028    0.3873E-20
  54934.098    0.3854E-20
  54934.167    0.3784E-20
  54934.237    0.3679E-20
  54934.307    0.3620E-20
  54934.377    0.3559E-20
  54934.447    0.3477E-20
  54934.517    0.3432E-20
  54934.587    0.3398E-20
  54934.657    0.3304E-20
  54934.727    0.3180E-20
  54934.797    0.3092E-20
  54934.866    0.2984E-20
  54934.936    0.2878E-20
  54935.006    0.2788E-20
  54935.076    0.2707E-20
  54935.146    0.2646E-20
  54935.216    0.2624E-20
  54935.286    0.2597E-20
  54935.356    0.2544E-20
  54935.426    0.2483E-20
  54935.496    0.2409E-20
  54935.566    0.2329E-20
  54935.635    0.2277E-20
  54935.705    0.2263E-20
  54935.775    0.2268E-20
  54935.845    0.2270E-20
  54935.915    0.2266E-20
  54935.985    0.2268E-20
  54936.055    0.2283E-20
  54936.125    0.2301E-20
  54936.195    0.2325E-20
  54936.265    0.2374E-20
  54936.335    0.2420E-20
  54936.404    0.2441E-20
  54936.474    0.2447E-20
  54936.544    0.2459E-20
  54936.614    0.2467E-20
  54936.684    0.2455E-20
  54936.754    0.2436E-20
  54936.824    0.2413E-20
  54936.894    0.2394E-20
  54936.964    0.2360E-20
  54937.034    0.2324E-20
  54937.104    0.2295E-20
  54937.174    0.2277E-20
  54937.243    0.2264E-20
  54937.313    0.2229E-20
  54937.383    0.2187E-20
  54937.453    0.2154E-20
  54937.523    0.2097E-20
  54937.593    0.2046E-20
  54937.663    0.2015E-20
  54937.733    0.1989E-20
  54937.803    0.1970E-20
  54937.873    0.1940E-20
  54937.943    0.1918E-20
  54938.013    0.1903E-20
  54938.083    0.1870E-20
  54938.152    0.1838E-20
  54938.222    0.1808E-20
  54938.292    0.1808E-20
  54938.362    0.1815E-20
  54938.432    0.1822E-20
  54938.502    0.1838E-20
  54938.572    0.1836E-20
  54938.642    0.1822E-20
  54938.712    0.1826E-20
  54938.782    0.1828E-20
  54938.852    0.1844E-20
  54938.922    0.1867E-20
  54938.992    0.1891E-20
  54939.061    0.1939E-20
  54939.131    0.1972E-20
  54939.201    0.1998E-20
  54939.271    0.2024E-20
  54939.341    0.2056E-20
  54939.411    0.2082E-20
  54939.481    0.2129E-20
  54939.551    0.2202E-20
  54939.621    0.2247E-20
  54939.691    0.2281E-20
  54939.761    0.2339E-20
  54939.831    0.2402E-20
  54939.901    0.2457E-20
  54939.971    0.2507E-20
  54940.040    0.2551E-20
  54940.110    0.2583E-20
  54940.180    0.2597E-20
  54940.250    0.2624E-20
  54940.320    0.2646E-20
  54940.390    0.2661E-20
  54940.460    0.2671E-20
  54940.530    0.2668E-20
  54940.600    0.2665E-20
  54940.670    0.2650E-20
  54940.740    0.2602E-20
  54940.810    0.2537E-20
  54940.880    0.2469E-20
  54940.950    0.2419E-20
  54941.019    0.2370E-20
  54941.089    0.2308E-20
  54941.159    0.2244E-20
  54941.229    0.2187E-20
  54941.299    0.2150E-20
  54941.369    0.2129E-20
  54941.439    0.2133E-20
  54941.509    0.2128E-20
  54941.579    0.2121E-20
  54941.649    0.2122E-20
  54941.719    0.2136E-20
  54941.789    0.2149E-20
  54941.859    0.2144E-20
  54941.929    0.2143E-20
  54941.999    0.2135E-20
  54942.069    0.2141E-20
  54942.139    0.2150E-20
  54942.208    0.2160E-20
  54942.278    0.2173E-20
  54942.348    0.2166E-20
  54942.418    0.2142E-20
  54942.488    0.2111E-20
  54942.558    0.2068E-20
  54942.628    0.2020E-20
  54942.698    0.2003E-20
  54942.768    0.1991E-20
  54942.838    0.1974E-20
  54942.908    0.1951E-20
  54942.978    0.1945E-20
  54943.048    0.1938E-20
  54943.118    0.1924E-20
  54943.188    0.1917E-20
  54943.258    0.1926E-20
  54943.328    0.1941E-20
  54943.398    0.1929E-20
  54943.467    0.1918E-20
  54943.537    0.1909E-20
  54943.607    0.1909E-20
  54943.677    0.1913E-20
  54943.747    0.1946E-20
  54943.817    0.1977E-20
  54943.887    0.2007E-20
  54943.957    0.2035E-20
  54944.027    0.2071E-20
  54944.097    0.2114E-20
  54944.167    0.2167E-20
  54944.237    0.2238E-20
  54944.307    0.2310E-20
  54944.377    0.2374E-20
  54944.447    0.2420E-20
  54944.517    0.2451E-20
  54944.587    0.2519E-20
  54944.657    0.2612E-20
  54944.727    0.2682E-20
  54944.797    0.2711E-20
  54944.866    0.2742E-20
  54944.936    0.2777E-20
  54945.006    0.2836E-20
  54945.076    0.2883E-20
  54945.146    0.2934E-20
  54945.216    0.2964E-20
  54945.286    0.2976E-20
  54945.356    0.2975E-20
  54945.426    0.2951E-20
  54945.496    0.2928E-20
  54945.566    0.2915E-20
  54945.636    0.2881E-20
  54945.706    0.2850E-20
  54945.776    0.2829E-20
  54945.846    0.2812E-20
  54945.916    0.2790E-20
  54945.986    0.2774E-20
  54946.056    0.2731E-20
  54946.126    0.2694E-20
  54946.196    0.2665E-20
  54946.266    0.2643E-20
  54946.336    0.2626E-20
  54946.406    0.2612E-20
  54946.475    0.2609E-20
  54946.545    0.2601E-20
  54946.615    0.2582E-20
  54946.685    0.2589E-20
  54946.755    0.2594E-20
  54946.825    0.2624E-20
  54946.895    0.2661E-20
  54946.965    0.2699E-20
  54947.035    0.2735E-20
  54947.105    0.2772E-20
  54947.175    0.2809E-20
  54947.245    0.2834E-20
  54947.315    0.2863E-20
  54947.385    0.2867E-20
  54947.455    0.2863E-20
  54947.525    0.2854E-20
  54947.595    0.2841E-20
  54947.665    0.2837E-20
  54947.735    0.2841E-20
  54947.805    0.2832E-20
  54947.875    0.2819E-20
  54947.945    0.2847E-20
  54948.015    0.2894E-20
  54948.085    0.2956E-20
  54948.155    0.2898E-20
  54948.225    0.2947E-20
  54948.295    0.3010E-20
  54948.365    0.3067E-20
  54948.435    0.3083E-20
  54948.505    0.3077E-20
  54948.575    0.3074E-20
  54948.644    0.3096E-20
  54948.714    0.3105E-20
  54948.784    0.3081E-20
  54948.854    0.3048E-20
  54948.924    0.3001E-20
  54948.994    0.2949E-20
  54949.064    0.2925E-20
  54949.134    0.3064E-20
  54949.204    0.3026E-20
  54949.274    0.2980E-20
  54949.344    0.2954E-20
  54949.414    0.2926E-20
  54949.484    0.2934E-20
  54949.554    0.2945E-20
  54949.624    0.2951E-20
  54949.694    0.2966E-20
  54949.764    0.2983E-20
  54949.834    0.2887E-20
  54949.904    0.2913E-20
  54949.974    0.2921E-20
  54950.044    0.2934E-20
  54950.114    0.2956E-20
  54950.184    0.2948E-20
  54950.254    0.3132E-20
  54950.324    0.3102E-20
  54950.394    0.3057E-20
  54950.464    0.3034E-20
  54950.534    0.3036E-20
  54950.604    0.2886E-20
  54950.674    0.2951E-20
  54950.744    0.2918E-20
  54950.814    0.2875E-20
  54950.884    0.2836E-20
  54950.954    0.2827E-20
  54951.024    0.2817E-20
  54951.094    0.2795E-20
  54951.164    0.2799E-20
  54951.234    0.2788E-20
  54951.304    0.2769E-20
  54951.374    0.2751E-20
  54951.444    0.2747E-20
  54951.514    0.2728E-20
  54951.584    0.2707E-20
  54951.654    0.2711E-20
  54951.724    0.2715E-20
  54951.794    0.2708E-20
  54951.864    0.2690E-20
  54951.934    0.2683E-20
  54952.004    0.2709E-20
  54952.074    0.2747E-20
  54952.144    0.2779E-20
  54952.214    0.2817E-20
  54952.284    0.2854E-20
  54952.353    0.2870E-20
  54952.423    0.2883E-20
  54952.493    0.2909E-20
  54952.563    0.2939E-20
  54952.633    0.2981E-20
  54952.703    0.3028E-20
  54952.773    0.2922E-20
  54952.843    0.2942E-20
  54952.913    0.2923E-20
  54952.983    0.2932E-20
  54953.053    0.2942E-20
  54953.123    0.3166E-20
  54953.193    0.2954E-20
  54953.263    0.2977E-20
  54953.333    0.2997E-20
  54953.403    0.2826E-20
  54953.473    0.2833E-20
  54953.543    0.2827E-20
  54953.613    0.2946E-20
  54953.683    0.2946E-20
  54953.753    0.2882E-20
  54953.823    0.2967E-20
  54953.893    0.3013E-20
  54953.963    0.3056E-20
  54954.033    0.3114E-20
  54954.103    0.3168E-20
  54954.173    0.3251E-20
  54954.243    0.3327E-20
  54954.313    0.3397E-20
  54954.383    0.3412E-20
  54954.453    0.3431E-20
  54954.523    0.3451E-20
  54954.593    0.3528E-20
  54954.663    0.3617E-20
  54954.733    0.3735E-20
  54954.803    0.3884E-20
  54954.873    0.4013E-20
  54954.943    0.4177E-20
  54955.013    0.4335E-20
  54955.083    0.4462E-20
  54955.153    0.4548E-20
  54955.223    0.4670E-20
  54955.293    0.4827E-20
  54955.363    0.5020E-20
  54955.433    0.5202E-20
  54955.503    0.5360E-20
  54955.573    0.5456E-20
  54955.643    0.5566E-20
  54955.713    0.5748E-20
  54955.783    0.5979E-20
  54955.853    0.6164E-20
  54955.923    0.6599E-20
  54955.993    0.6869E-20
  54956.063    0.7035E-20
  54956.133    0.7309E-20
  54956.203    0.7677E-20
  54956.273    0.8084E-20
  54956.343    0.8524E-20
  54956.413    0.8980E-20
  54956.484    0.9457E-20
  54956.554    0.9976E-20
  54956.624    0.1062E-19
  54956.694    0.1133E-19
  54956.764    0.1216E-19
  54956.834    0.1305E-19
  54956.904    0.1403E-19
  54956.974    0.1512E-19
  54957.044    0.1632E-19
  54957.114    0.1776E-19
  54957.184    0.1958E-19
  54957.254    0.2303E-19
  54957.324    0.2573E-19
  54957.394    0.2890E-19
  54957.464    0.3242E-19
  54957.534    0.3625E-19
  54957.604    0.4443E-19
  54957.674    0.5301E-19
  54957.744    0.5917E-19
  54957.814    0.6552E-19
  54957.884    0.7157E-19
  54957.954    0.7742E-19
  54958.024    0.8235E-19
  54958.094    0.8683E-19
  54958.164    0.8993E-19
  54958.234    0.9177E-19
  54958.304    0.9273E-19
  54958.374    0.9370E-19
  54958.444    0.9380E-19
  54958.514    0.9362E-19
  54958.584    0.9351E-19
  54958.654    0.9293E-19
  54958.724    0.9169E-19
  54958.794    0.8916E-19
  54958.864    0.8618E-19
  54958.934    0.8320E-19
  54959.004    0.7990E-19
  54959.074    0.7562E-19
  54959.144    0.7089E-19
  54959.214    0.6574E-19
  54959.284    0.6052E-19
  54959.354    0.5558E-19
  54959.424    0.5083E-19
  54959.494    0.4436E-19
  54959.564    0.3969E-19
  54959.634    0.3620E-19
  54959.704    0.3314E-19
  54959.774    0.3041E-19
  54959.844    0.2807E-19
  54959.914    0.2603E-19
  54959.984    0.2427E-19
  54960.054    0.2272E-19
  54960.125    0.2121E-19
  54960.195    0.1918E-19
  54960.265    0.1798E-19
  54960.335    0.1692E-19
  54960.405    0.1540E-19
  54960.475    0.1463E-19
  54960.545    0.1384E-19
  54960.615    0.1323E-19
  54960.685    0.1270E-19
  54960.755    0.1219E-19
  54960.825    0.1176E-19
  54960.895    0.1114E-19
  54960.965    0.1061E-19
  54961.035    0.1037E-19
  54961.105    0.1014E-19
  54961.175    0.9979E-20
  54961.245    0.9840E-20
  54961.315    0.9620E-20
  54961.385    0.9415E-20
  54961.455    0.9242E-20
  54961.525    0.9119E-20
  54961.595    0.9046E-20
  54961.665    0.8940E-20
  54961.735    0.8776E-20
  54961.805    0.8529E-20
  54961.875    0.8367E-20
  54961.945    0.8228E-20
  54962.015    0.8152E-20
  54962.085    0.8261E-20
  54962.155    0.8444E-20
  54962.225    0.8513E-20
  54962.296    0.8522E-20
  54962.366    0.8542E-20
  54962.436    0.8592E-20
  54962.506    0.8706E-20
  54962.576    0.8921E-20
  54962.646    0.9063E-20
  54962.716    0.9231E-20
  54962.786    0.9362E-20
  54962.856    0.9439E-20
  54962.926    0.9523E-20
  54962.996    0.9590E-20
  54963.066    0.9737E-20
  54963.136    0.9939E-20
  54963.206    0.1020E-19
  54963.276    0.1064E-19
  54963.346    0.1112E-19
  54963.416    0.1143E-19
  54963.486    0.1178E-19
  54963.556    0.1223E-19
  54963.626    0.1284E-19
  54963.696    0.1359E-19
  54963.766    0.1439E-19
  54963.836    0.1518E-19
  54963.907    0.1588E-19
  54963.977    0.1647E-19
  54964.047    0.1698E-19
  54964.117    0.1770E-19
  54964.187    0.1857E-19
  54964.257    0.1947E-19
  54964.327    0.2137E-19
  54964.397    0.2268E-19
  54964.467    0.2394E-19
  54964.537    0.2540E-19
  54964.607    0.2695E-19
  54964.677    0.2859E-19
  54964.747    0.3037E-19
  54964.817    0.3222E-19
  54964.887    0.3459E-19
  54964.957    0.3731E-19
  54965.027    0.4025E-19
  54965.097    0.4572E-19
  54965.167    0.5377E-19
  54965.237    0.5864E-19
  54965.307    0.6500E-19
  54965.378    0.7267E-19
  54965.448    0.8120E-19
  54965.518    0.9025E-19
  54965.588    0.9982E-19
  54965.658    0.1110E-18
  54965.728    0.1292E-18
  54965.798    0.1464E-18
  54965.868    0.1646E-18
  54965.938    0.1709E-18
  54966.008    0.1859E-18
  54966.078    0.1992E-18
  54966.148    0.2121E-18
  54966.218    0.2238E-18
  54966.288    0.2326E-18
  54966.358    0.2376E-18
  54966.428    0.2406E-18
  54966.498    0.2399E-18
  54966.569    0.2371E-18
  54966.639    0.2305E-18
  54966.709    0.2242E-18
  54966.779    0.2186E-18
  54966.849    0.2110E-18
  54966.919    0.2019E-18
  54966.989    0.1922E-18
  54967.059    0.1771E-18
  54967.129    0.1615E-18
  54967.199    0.1377E-18
  54967.269    0.1174E-18
  54967.339    0.1078E-18
  54967.409    0.9865E-19
  54967.479    0.8112E-19
  54967.549    0.7361E-19
  54967.619    0.6670E-19
  54967.689    0.6135E-19
  54967.760    0.5659E-19
  54967.830    0.5225E-19
  54967.900    0.4843E-19
  54967.970    0.4412E-19
  54968.040    0.4015E-19
  54968.110    0.3708E-19
  54968.180    0.3414E-19
  54968.250    0.3166E-19
  54968.320    0.2948E-19
  54968.390    0.2781E-19
  54968.460    0.2616E-19
  54968.530    0.2463E-19
  54968.600    0.2337E-19
  54968.670    0.2222E-19
  54968.741    0.2111E-19
  54968.811    0.1989E-19
  54968.881    0.1833E-19
  54968.951    0.1737E-19
  54969.021    0.1651E-19
  54969.091    0.1575E-19
  54969.161    0.1503E-19
  54969.231    0.1428E-19
  54969.301    0.1357E-19
  54969.371    0.1285E-19
  54969.441    0.1226E-19
  54969.511    0.1178E-19
  54969.581    0.1129E-19
  54969.651    0.1083E-19
  54969.722    0.1037E-19
  54969.792    0.9968E-20
  54969.862    0.9591E-20
  54969.932    0.9217E-20
  54970.002    0.8875E-20
  54970.072    0.8614E-20
  54970.142    0.8363E-20
  54970.212    0.8023E-20
  54970.282    0.7712E-20
  54970.352    0.7543E-20
  54970.422    0.7300E-20
  54970.492    0.7108E-20
  54970.562    0.6949E-20
  54970.633    0.6831E-20
  54970.703    0.6568E-20
  54970.773    0.6441E-20
  54970.843    0.6327E-20
  54970.913    0.6210E-20
  54970.983    0.6047E-20
  54971.053    0.5909E-20
  54971.123    0.5781E-20
  54971.193    0.5674E-20
  54971.263    0.5542E-20
  54971.333    0.5408E-20
  54971.403    0.5253E-20
  54971.473    0.5114E-20
  54971.544    0.4996E-20
  54971.614    0.4869E-20
  54971.684    0.4772E-20
  54971.754    0.4735E-20
  54971.824    0.4707E-20
  54971.894    0.4638E-20
  54971.964    0.4546E-20
  54972.034    0.4459E-20
  54972.104    0.4394E-20
  54972.174    0.4337E-20
  54972.244    0.4303E-20
  54972.314    0.4231E-20
  54972.385    0.4184E-20
  54972.455    0.4153E-20
  54972.525    0.4127E-20
  54972.595    0.4061E-20
  54972.665    0.4014E-20
  54972.735    0.4004E-20
  54972.805    0.3951E-20
  54972.875    0.3913E-20
  54972.945    0.3872E-20
  54973.015    0.3877E-20
  54973.085    0.3903E-20
  54973.156    0.3913E-20
  54973.226    0.3901E-20
  54973.296    0.3909E-20
  54973.366    0.3901E-20
  54973.436    0.3859E-20
  54973.506    0.3786E-20
  54973.576    0.3716E-20
  54973.646    0.3690E-20
  54973.716    0.3639E-20
  54973.786    0.3597E-20
  54973.856    0.3570E-20
  54973.927    0.3573E-20
  54973.997    0.3555E-20
  54974.067    0.3520E-20
  54974.137    0.3472E-20
  54974.207    0.3416E-20
  54974.277    0.3331E-20
  54974.347    0.3282E-20
  54974.417    0.3271E-20
  54974.487    0.3264E-20
  54974.557    0.3299E-20
  54974.628    0.3305E-20
  54974.698    0.3245E-20
  54974.768    0.3177E-20
  54974.838    0.3131E-20
  54974.908    0.3075E-20
  54974.978    0.3015E-20
  54975.048    0.2985E-20
  54975.118    0.3002E-20
  54975.188    0.3011E-20
  54975.258    0.3018E-20
  54975.329    0.3015E-20
  54975.399    0.2999E-20
  54975.469    0.2983E-20
  54975.539    0.2971E-20
  54975.609    0.2971E-20
  54975.679    0.2965E-20
  54975.749    0.2957E-20
  54975.819    0.2954E-20
  54975.889    0.2961E-20
  54975.959    0.2992E-20
  54976.030    0.3042E-20
  54976.100    0.3051E-20
  54976.170    0.3061E-20
  54976.240    0.3039E-20
  54976.310    0.2994E-20
  54976.380    0.3005E-20
  54976.450    0.3027E-20
  54976.520    0.3039E-20
  54976.590    0.3076E-20
  54976.661    0.3098E-20
  54976.731    0.3106E-20
  54976.801    0.3145E-20
  54976.871    0.3169E-20
  54976.941    0.3210E-20
  54977.011    0.3258E-20
  54977.081    0.3283E-20
  54977.151    0.3316E-20
  54977.221    0.3316E-20
  54977.292    0.3275E-20
  54977.362    0.3267E-20
  54977.432    0.3291E-20
  54977.502    0.3302E-20
  54977.572    0.3318E-20
  54977.642    0.3323E-20
  54977.712    0.3324E-20
  54977.782    0.3322E-20
  54977.852    0.3326E-20
  54977.923    0.3292E-20
  54977.993    0.3264E-20
  54978.063    0.3288E-20
  54978.133    0.3284E-20
  54978.203    0.3281E-20
  54978.273    0.3255E-20
  54978.343    0.3213E-20
  54978.413    0.3205E-20
  54978.483    0.3202E-20
  54978.554    0.3193E-20
  54978.624    0.3205E-20
  54978.694    0.3184E-20
  54978.764    0.3159E-20
  54978.834    0.3148E-20
  54978.904    0.3159E-20
  54978.974    0.3199E-20
  54979.044    0.3266E-20
  54979.115    0.3299E-20
  54979.185    0.3300E-20
  54979.255    0.3319E-20
  54979.325    0.3348E-20
  54979.395    0.3359E-20
  54979.465    0.3349E-20
  54979.535    0.3332E-20
  54979.605    0.3330E-20
  54979.675    0.3323E-20
  54979.746    0.3331E-20
  54979.816    0.3377E-20
  54979.886    0.3437E-20
  54979.956    0.3479E-20
  54980.026    0.3479E-20
  54980.096    0.3468E-20
  54980.166    0.3517E-20
  54980.236    0.3580E-20
  54980.307    0.3648E-20
  54980.377    0.3661E-20
  54980.447    0.3682E-20
  54980.517    0.3698E-20
  54980.587    0.3685E-20
  54980.657    0.3692E-20
  54980.727    0.3717E-20
  54980.797    0.3743E-20
  54980.868    0.3781E-20
  54980.938    0.3887E-20
  54981.008    0.3967E-20
  54981.078    0.4004E-20
  54981.148    0.4007E-20
  54981.218    0.4019E-20
  54981.288    0.4068E-20
  54981.359    0.4140E-20
  54981.429    0.4283E-20
  54981.499    0.4414E-20
  54981.569    0.4534E-20
  54981.639    0.4680E-20
  54981.709    0.4797E-20
  54981.779    0.4917E-20
  54981.849    0.5007E-20
  54981.920    0.5126E-20
  54981.990    0.5283E-20
  54982.060    0.5453E-20
  54982.130    0.5616E-20
  54982.200    0.5749E-20
  54982.270    0.5784E-20
  54982.340    0.5802E-20
  54982.411    0.5781E-20
  54982.481    0.5753E-20
  54982.551    0.5716E-20
  54982.621    0.5642E-20
  54982.691    0.5642E-20
  54982.761    0.5633E-20
  54982.831    0.5587E-20
  54982.901    0.5536E-20
  54982.972    0.5482E-20
  54983.042    0.5416E-20
  54983.112    0.5303E-20
  54983.182    0.5181E-20
  54983.252    0.5171E-20
  54983.322    0.5168E-20
  54983.392    0.5148E-20
  54983.463    0.5134E-20
  54983.533    0.5143E-20
  54983.603    0.5149E-20
  54983.673    0.5180E-20
  54983.743    0.5233E-20
  54983.813    0.5357E-20
  54983.883    0.5489E-20
  54983.954    0.5616E-20
  54984.024    0.5720E-20
  54984.094    0.5721E-20
  54984.164    0.5738E-20
  54984.234    0.5815E-20
  54984.304    0.5886E-20
  54984.374    0.5923E-20
  54984.445    0.6000E-20
  54984.515    0.6063E-20
  54984.585    0.6094E-20
  54984.655    0.6192E-20
  54984.725    0.6315E-20
  54984.795    0.6471E-20
  54984.865    0.6640E-20
  54984.936    0.6782E-20
  54985.006    0.6826E-20
  54985.076    0.6860E-20
  54985.146    0.7001E-20
  54985.216    0.6917E-20
  54985.286    0.6982E-20
  54985.357    0.7071E-20
  54985.427    0.7222E-20
  54985.497    0.7365E-20
  54985.567    0.7589E-20
  54985.637    0.7698E-20
  54985.707    0.7930E-20
  54985.777    0.8085E-20
  54985.848    0.8200E-20
  54985.918    0.8384E-20
  54985.988    0.8569E-20
  54986.058    0.8715E-20
  54986.128    0.8842E-20
  54986.198    0.8945E-20
  54986.269    0.9166E-20
  54986.339    0.9570E-20
  54986.409    0.9933E-20
  54986.479    0.1026E-19
  54986.549    0.1057E-19
  54986.619    0.1076E-19
  54986.689    0.1097E-19
  54986.760    0.1133E-19
  54986.830    0.1172E-19
  54986.900    0.1216E-19
  54986.970    0.1271E-19
  54987.040    0.1320E-19
  54987.110    0.1362E-19
  54987.181    0.1412E-19
  54987.251    0.1469E-19
  54987.321    0.1533E-19
  54987.391    0.1597E-19
  54987.461    0.1734E-19
  54987.531    0.1808E-19
  54987.602    0.1867E-19
  54987.672    0.1960E-19
  54987.742    0.2054E-19
  54987.812    0.2179E-19
  54987.882    0.2284E-19
  54987.952    0.2397E-19
  54988.022    0.2515E-19
  54988.093    0.2664E-19
  54988.163    0.2843E-19
  54988.233    0.3006E-19
  54988.303    0.3214E-19
  54988.373    0.3440E-19
  54988.443    0.3685E-19
  54988.514    0.3973E-19
  54988.584    0.4432E-19
  54988.654    0.4792E-19
  54988.724    0.5506E-19
  54988.794    0.6033E-19
  54988.864    0.6663E-19
  54988.935    0.7350E-19
  54989.005    0.8122E-19
  54989.075    0.9044E-19
  54989.145    0.1005E-18
  54989.215    0.1120E-18
  54989.285    0.1292E-18
  54989.356    0.1437E-18
  54989.426    0.1580E-18
  54989.496    0.1647E-18
  54989.566    0.1822E-18
  54989.636    0.1988E-18
  54989.706    0.2128E-18
  54989.777    0.2229E-18
  54989.847    0.2289E-18
  54989.917    0.2356E-18
  54989.987    0.2433E-18
  54990.057    0.2492E-18
  54990.128    0.2535E-18
  54990.198    0.2556E-18
  54990.268    0.2547E-18
  54990.338    0.2501E-18
  54990.408    0.2446E-18
  54990.478    0.2384E-18
  54990.549    0.2313E-18
  54990.619    0.2207E-18
  54990.689    0.2074E-18
  54990.759    0.1935E-18
  54990.829    0.1796E-18
  54990.899    0.1660E-18
  54990.970    0.1517E-18
  54991.040    0.1195E-18
  54991.110    0.1107E-18
  54991.180    0.1017E-18
  54991.250    0.8865E-19
  54991.321    0.8149E-19
  54991.391    0.7517E-19
  54991.461    0.6904E-19
  54991.531    0.6417E-19
  54991.601    0.5940E-19
  54991.671    0.5477E-19
  54991.742    0.5132E-19
  54991.812    0.4781E-19
  54991.882    0.4415E-19
  54991.952    0.4203E-19
  54992.022    0.4013E-19
  54992.092    0.3873E-19
  54992.163    0.3746E-19
  54992.233    0.3602E-19
  54992.303    0.3461E-19
  54992.373    0.3341E-19
  54992.443    0.3211E-19
  54992.514    0.3101E-19
  54992.584    0.3028E-19
  54992.654    0.2967E-19
  54992.724    0.2918E-19
  54992.794    0.2881E-19
  54992.865    0.2861E-19
  54992.935    0.2849E-19
  54993.005    0.2828E-19
  54993.075    0.2807E-19
  54993.145    0.2814E-19
  54993.215    0.2854E-19
  54993.286    0.2869E-19
  54993.356    0.2876E-19
  54993.426    0.2904E-19
  54993.496    0.2969E-19
  54993.566    0.3015E-19
  54993.637    0.3062E-19
  54993.707    0.3143E-19
  54993.777    0.3242E-19
  54993.847    0.3340E-19
  54993.917    0.3475E-19
  54993.988    0.3600E-19
  54994.058    0.3735E-19
  54994.128    0.3902E-19
  54994.198    0.4064E-19
  54994.268    0.4202E-19
  54994.339    0.4341E-19
  54994.409    0.4500E-19
  54994.479    0.4680E-19
  54994.549    0.5170E-19
  54994.619    0.5430E-19
  54994.689    0.5692E-19
  54994.760    0.5967E-19
  54994.830    0.6290E-19
  54994.900    0.6669E-19
  54994.970    0.7117E-19
  54995.040    0.7598E-19
  54995.111    0.8177E-19
  54995.181    0.8835E-19
  54995.251    0.9634E-19
  54995.321    0.1065E-18
  54995.391    0.1183E-18
  54995.462    0.1379E-18
  54995.532    0.1535E-18
  54995.602    0.1654E-18
  54995.672    0.1812E-18
  54995.742    0.2001E-18
  54995.813    0.2213E-18
  54995.883    0.2461E-18
  54995.953    0.2724E-18
  54996.023    0.2961E-18
  54996.093    0.3276E-18
  54996.164    0.3598E-18
  54996.234    0.3889E-18
  54996.304    0.4135E-18
  54996.374    0.4330E-18
  54996.444    0.4504E-18
  54996.515    0.4639E-18
  54996.585    0.4707E-18
  54996.655    0.4733E-18
  54996.725    0.4715E-18
  54996.795    0.4637E-18
  54996.866    0.4481E-18
  54996.936    0.4264E-18
  54997.006    0.4029E-18
  54997.076    0.3770E-18
  54997.147    0.3132E-18
  54997.217    0.2899E-18
  54997.287    0.2677E-18
  54997.357    0.2442E-18
  54997.427    0.2212E-18
  54997.498    0.1980E-18
  54997.568    0.1776E-18
  54997.638    0.1601E-18
  54997.708    0.1441E-18
  54997.778    0.1106E-18
  54997.849    0.1031E-18
  54997.919    0.8838E-19
  54997.989    0.8225E-19
  54998.059    0.7604E-19
  54998.129    0.7047E-19
  54998.200    0.6627E-19
  54998.270    0.6236E-19
  54998.340    0.5841E-19
  54998.410    0.5430E-19
  54998.481    0.5065E-19
  54998.551    0.4727E-19
  54998.621    0.4497E-19
  54998.691    0.4334E-19
  54998.761    0.4141E-19
  54998.832    0.3905E-19
  54998.902    0.3712E-19
  54998.972    0.3546E-19
  54999.042    0.3351E-19
  54999.112    0.3188E-19
  54999.183    0.3036E-19
  54999.253    0.2869E-19
  54999.323    0.2713E-19
  54999.393    0.2576E-19
  54999.464    0.2474E-19
  54999.534    0.2369E-19
  54999.604    0.2276E-19
  54999.674    0.2192E-19
  54999.744    0.2101E-19
  54999.815    0.2009E-19
  54999.885    0.1935E-19
  54999.955    0.1862E-19
  55000.025    0.1803E-19
  55000.096    0.1745E-19
  55000.166    0.1718E-19
  55000.236    0.1659E-19
  55000.306    0.1607E-19
  55000.376    0.1557E-19
  55000.447    0.1513E-19
  55000.517    0.1482E-19
  55000.587    0.1457E-19
  55000.657    0.1431E-19
  55000.728    0.1401E-19
  55000.798    0.1360E-19
  55000.868    0.1319E-19
  55000.938    0.1282E-19
  55001.008    0.1252E-19
  55001.079    0.1228E-19
  55001.149    0.1196E-19
  55001.219    0.1161E-19
  55001.289    0.1124E-19
  55001.360    0.1087E-19
  55001.430    0.1065E-19
  55001.500    0.1053E-19
  55001.570    0.1044E-19
  55001.640    0.1032E-19
  55001.711    0.1018E-19
  55001.781    0.1004E-19
  55001.851    0.9919E-20
  55001.921    0.9772E-20
  55001.992    0.9578E-20
  55002.062    0.9369E-20
  55002.132    0.9185E-20
  55002.202    0.8990E-20
  55002.273    0.8809E-20
  55002.343    0.8641E-20
  55002.413    0.8720E-20
  55002.483    0.8763E-20
  55002.553    0.8769E-20
  55002.624    0.8778E-20
  55002.694    0.8619E-20
  55002.764    0.8520E-20
  55002.834    0.8528E-20
  55002.905    0.8565E-20
  55002.975    0.8531E-20
  55003.045    0.8444E-20
  55003.115    0.8407E-20
  55003.186    0.8430E-20
  55003.256    0.8350E-20
  55003.326    0.8183E-20
  55003.396    0.8038E-20
  55003.467    0.8006E-20
  55003.537    0.7969E-20
  55003.607    0.7933E-20
  55003.677    0.7878E-20
  55003.747    0.7813E-20
  55003.818    0.7738E-20
  55003.888    0.7612E-20
  55003.958    0.7562E-20
  55004.028    0.7560E-20
  55004.099    0.7560E-20
  55004.169    0.7630E-20
  55004.239    0.7530E-20
  55004.309    0.7603E-20
  55004.380    0.7494E-20
  55004.450    0.7417E-20
  55004.520    0.7425E-20
  55004.590    0.7420E-20
  55004.661    0.7410E-20
  55004.731    0.7381E-20
  55004.801    0.7337E-20
  55004.871    0.7348E-20
  55004.942    0.7331E-20
  55005.012    0.7345E-20
  55005.082    0.7390E-20
  55005.152    0.7469E-20
  55005.223    0.7565E-20
  55005.293    0.7561E-20
  55005.363    0.7520E-20
  55005.433    0.7517E-20
  55005.504    0.7553E-20
  55005.574    0.7496E-20
  55005.644    0.7443E-20
  55005.714    0.7418E-20
  55005.785    0.7448E-20
  55005.855    0.7495E-20
  55005.925    0.7567E-20
  55005.995    0.7277E-20
  55006.066    0.7418E-20
  55006.136    0.7498E-20
  55006.206    0.7535E-20
  55006.276    0.7553E-20
  55006.347    0.7520E-20
  55006.417    0.7479E-20
  55006.487    0.7318E-20
  55006.557    0.7313E-20
  55006.628    0.7312E-20
  55006.698    0.7413E-20
  55006.768    0.7567E-20
  55006.838    0.7787E-20
  55006.909    0.7987E-20
  55006.979    0.8037E-20
  55007.049    0.7922E-20
  55007.119    0.7787E-20
  55007.190    0.7774E-20
  55007.260    0.7886E-20
  55007.330    0.8060E-20
  55007.400    0.8190E-20
  55007.471    0.8189E-20
  55007.541    0.8290E-20
  55007.611    0.8495E-20
  55007.681    0.8695E-20
  55007.752    0.8707E-20
  55007.822    0.8606E-20
  55007.892    0.8565E-20
  55007.962    0.8568E-20
  55008.033    0.8574E-20
  55008.103    0.8625E-20
  55008.173    0.8760E-20
  55008.243    0.8946E-20
  55008.314    0.9051E-20
  55008.384    0.9148E-20
  55008.454    0.9331E-20
  55008.525    0.9470E-20
  55008.595    0.9498E-20
  55008.665    0.9557E-20
  55008.735    0.9693E-20
  55008.806    0.9862E-20
  55008.876    0.1002E-19
  55008.946    0.1008E-19
  55009.016    0.1015E-19
  55009.087    0.1032E-19
  55009.157    0.1041E-19
  55009.227    0.1045E-19
  55009.297    0.1051E-19
  55009.368    0.1064E-19
  55009.438    0.1085E-19
  55009.508    0.1106E-19
  55009.579    0.1134E-19
  55009.649    0.1166E-19
  55009.719    0.1196E-19
  55009.789    0.1228E-19
  55009.860    0.1257E-19
  55009.930    0.1283E-19
  55010.000    0.1322E-19
  55010.070    0.1361E-19
  55010.141    0.1396E-19
  55010.211    0.1425E-19
  55010.281    0.1450E-19
  55010.351    0.1496E-19
  55010.422    0.1555E-19
  55010.492    0.1680E-19
  55010.562    0.1743E-19
  55010.633    0.1802E-19
  55010.703    0.1880E-19
  55010.773    0.1987E-19
  55010.843    0.2050E-19
  55010.914    0.2121E-19
  55010.984    0.2191E-19
  55011.054    0.2242E-19
  55011.124    0.2279E-19
  55011.195    0.2312E-19
  55011.265    0.2338E-19
  55011.335    0.2343E-19
  55011.406    0.2331E-19
  55011.476    0.2357E-19
  55011.546    0.2395E-19
  55011.616    0.2411E-19
  55011.687    0.2430E-19
  55011.757    0.2417E-19
  55011.827    0.2421E-19
  55011.898    0.2454E-19
  55011.968    0.2489E-19
  55012.038    0.2547E-19
  55012.108    0.2623E-19
  55012.179    0.2718E-19
  55012.249    0.2816E-19
  55012.319    0.2928E-19
  55012.389    0.3021E-19
  55012.460    0.3101E-19
  55012.530    0.3204E-19
  55012.600    0.3298E-19
  55012.671    0.3397E-19
  55012.741    0.3523E-19
  55012.811    0.3663E-19
  55012.881    0.3812E-19
  55012.952    0.4162E-19
  55013.022    0.4357E-19
  55013.092    0.4591E-19
  55013.163    0.5096E-19
  55013.233    0.5348E-19
  55013.303    0.5589E-19
  55013.373    0.5942E-19
  55013.444    0.6317E-19
  55013.514    0.6782E-19
  55013.584    0.7283E-19
  55013.655    0.7772E-19
  55013.725    0.8294E-19
  55013.795    0.8939E-19
  55013.865    0.9666E-19
  55013.936    0.1045E-18
  55014.006    0.1123E-18
  55014.076    0.1273E-18
  55014.147    0.1414E-18
  55014.217    0.1566E-18
  55014.287    0.1643E-18
  55014.357    0.1818E-18
  55014.428    0.2006E-18
  55014.498    0.2227E-18
  55014.568    0.2477E-18
  55014.639    0.2762E-18
  55014.709    0.3137E-18
  55014.779    0.3434E-18
  55014.850    0.3713E-18
  55014.920    0.3993E-18
  55014.990    0.4281E-18
  55015.060    0.4580E-18
  55015.131    0.4855E-18
  55015.201    0.5040E-18
  55015.271    0.5105E-18
  55015.342    0.5128E-18
  55015.412    0.5157E-18
  55015.482    0.5137E-18
  55015.552    0.5089E-18
  55015.623    0.4981E-18
  55015.693    0.4813E-18
  55015.763    0.4598E-18
  55015.834    0.4359E-18
  55015.904    0.4108E-18
  55015.974    0.3862E-18
  55016.045    0.3586E-18
  55016.115    0.3278E-18
  55016.185    0.2798E-18
  55016.255    0.2531E-18
  55016.326    0.2306E-18
  55016.396    0.2116E-18
  55016.466    0.1949E-18
  55016.537    0.1809E-18
  55016.607    0.1668E-18
  55016.677    0.1534E-18
  55016.748    0.1346E-18
  55016.818    0.1291E-18
  55016.888    0.1242E-18
  55016.958    0.1138E-18
  55017.029    0.1080E-18
  55017.099    0.9964E-19
  55017.169    0.9629E-19
  55017.240    0.9362E-19
  55017.310    0.9197E-19
  55017.380    0.9111E-19
  55017.451    0.8996E-19
  55017.521    0.8957E-19
  55017.591    0.8985E-19
  55017.662    0.8957E-19
  55017.732    0.8947E-19
  55017.802    0.8949E-19
  55017.872    0.9005E-19
  55017.943    0.9098E-19
  55018.013    0.9249E-19
  55018.083    0.9394E-19
  55018.154    0.9522E-19
  55018.224    0.9645E-19
  55018.294    0.9863E-19
  55018.365    0.1012E-18
  55018.435    0.1038E-18
  55018.505    0.1074E-18
  55018.576    0.1102E-18
  55018.646    0.1140E-18
  55018.716    0.1214E-18
  55018.786    0.1284E-18
  55018.857    0.1379E-18
  55018.927    0.1500E-18
  55018.997    0.1639E-18
  55019.068    0.1680E-18
  55019.138    0.1832E-18
  55019.208    0.2040E-18
  55019.279    0.2265E-18
  55019.349    0.2517E-18
  55019.419    0.2798E-18
  55019.490    0.3108E-18
  55019.560    0.3429E-18
  55019.630    0.3802E-18
  55019.701    0.4182E-18
  55019.771    0.4602E-18
  55019.841    0.5001E-18
  55019.911    0.5372E-18
  55019.982    0.5764E-18
  55020.052    0.6078E-18
  55020.122    0.6344E-18
  55020.193    0.6535E-18
  55020.263    0.6606E-18
  55020.333    0.6566E-18
  55020.404    0.6455E-18
  55020.474    0.6266E-18
  55020.544    0.6067E-18
  55020.615    0.5833E-18
  55020.685    0.5585E-18
  55020.755    0.5279E-18
  55020.826    0.4900E-18
  55020.896    0.4511E-18
  55020.966    0.4100E-18
  55021.037    0.3679E-18
  55021.107    0.3035E-18
  55021.177    0.2750E-18
  55021.248    0.2486E-18
  55021.318    0.2255E-18
  55021.388    0.2054E-18
  55021.459    0.1874E-18
  55021.529    0.1704E-18
  55021.599    0.1559E-18
  55021.670    0.1290E-18
  55021.740    0.1192E-18
  55021.810    0.1095E-18
  55021.880    0.1022E-18
  55021.951    0.9860E-19
  55022.021    0.9456E-19
  55022.091    0.9053E-19
  55022.162    0.8623E-19
  55022.232    0.8205E-19
  55022.302    0.7751E-19
  55022.373    0.7296E-19
  55022.443    0.6941E-19
  55022.513    0.6602E-19
  55022.584    0.6242E-19
  55022.654    0.5838E-19
  55022.724    0.5466E-19
  55022.795    0.5139E-19
  55022.865    0.4828E-19
  55022.935    0.4581E-19
  55023.006    0.4479E-19
  55023.076    0.4306E-19
  55023.146    0.4133E-19
  55023.217    0.3991E-19
  55023.287    0.3803E-19
  55023.357    0.3621E-19
  55023.428    0.3478E-19
  55023.498    0.3351E-19
  55023.568    0.3222E-19
  55023.639    0.3121E-19
  55023.709    0.3062E-19
  55023.779    0.2983E-19
  55023.850    0.2892E-19
  55023.920    0.2783E-19
  55023.990    0.2701E-19
  55024.061    0.2653E-19
  55024.131    0.2638E-19
  55024.201    0.2609E-19
  55024.272    0.2562E-19
  55024.342    0.2495E-19
  55024.412    0.2425E-19
  55024.483    0.2369E-19
  55024.553    0.2303E-19
  55024.624    0.2262E-19
  55024.694    0.2213E-19
  55024.764    0.2149E-19
  55024.835    0.2079E-19
  55024.905    0.2001E-19
  55024.975    0.1966E-19
  55025.046    0.1939E-19
  55025.116    0.1925E-19
  55025.186    0.1935E-19
  55025.257    0.1939E-19
  55025.327    0.1930E-19
  55025.397    0.1938E-19
  55025.468    0.1928E-19
  55025.538    0.1905E-19
  55025.608    0.1882E-19
  55025.679    0.1874E-19
  55025.749    0.1847E-19
  55025.819    0.1825E-19
  55025.890    0.1799E-19
  55025.960    0.1793E-19
  55026.030    0.1794E-19
  55026.101    0.1800E-19
  55026.171    0.1802E-19
  55026.241    0.1791E-19
  55026.312    0.1775E-19
  55026.382    0.1753E-19
  55026.452    0.1754E-19
  55026.523    0.1767E-19
  55026.593    0.1768E-19
  55026.664    0.1774E-19
  55026.734    0.1792E-19
  55026.804    0.1816E-19
  55026.875    0.1839E-19
  55026.945    0.1851E-19
  55027.015    0.1859E-19
  55027.086    0.1844E-19
  55027.156    0.1831E-19
  55027.226    0.1830E-19
  55027.297    0.1820E-19
  55027.367    0.1800E-19
  55027.437    0.1794E-19
  55027.508    0.1796E-19
  55027.578    0.1798E-19
  55027.648    0.1800E-19
  55027.719    0.1813E-19
  55027.789    0.1840E-19
  55027.860    0.1858E-19
  55027.930    0.1880E-19
  55028.000    0.1911E-19
  55028.071    0.1913E-19
  55028.141    0.1918E-19
  55028.211    0.1937E-19
  55028.282    0.1957E-19
  55028.352    0.1992E-19
  55028.422    0.2019E-19
  55028.493    0.2050E-19
  55028.563    0.2088E-19
  55028.633    0.2093E-19
  55028.704    0.2084E-19
  55028.774    0.2095E-19
  55028.845    0.2112E-19
  55028.915    0.2135E-19
  55028.985    0.2175E-19
  55029.056    0.2209E-19
  55029.126    0.2243E-19
  55029.196    0.2283E-19
  55029.267    0.2329E-19
  55029.337    0.2388E-19
  55029.407    0.2462E-19
  55029.478    0.2516E-19
  55029.548    0.2556E-19
  55029.619    0.2597E-19
  55029.689    0.2643E-19
  55029.759    0.2698E-19
  55029.830    0.2780E-19
  55029.900    0.2872E-19
  55029.970    0.2914E-19
  55030.041    0.2958E-19
  55030.111    0.3019E-19
  55030.181    0.3103E-19
  55030.252    0.3227E-19
  55030.322    0.3377E-19
  55030.393    0.3499E-19
  55030.463    0.3603E-19
  55030.533    0.3675E-19
  55030.604    0.3780E-19
  55030.674    0.3916E-19
  55030.744    0.4066E-19
  55030.815    0.4290E-19
  55030.885    0.4445E-19
  55030.955    0.4629E-19
  55031.026    0.5023E-19
  55031.096    0.5168E-19
  55031.167    0.5295E-19
  55031.237    0.5498E-19
  55031.307    0.5831E-19
  55031.378    0.6185E-19
  55031.448    0.6576E-19
  55031.518    0.6945E-19
  55031.589    0.7268E-19
  55031.659    0.7635E-19
  55031.730    0.8079E-19
  55031.800    0.8633E-19
  55031.870    0.9153E-19
  55031.941    0.9706E-19
  55032.011    0.1040E-18
  55032.081    0.1098E-18
  55032.152    0.1176E-18
  55032.222    0.1259E-18
  55032.293    0.1356E-18
  55032.363    0.1463E-18
  55032.433    0.1582E-18
  55032.504    0.1640E-18
  55032.574    0.1780E-18
  55032.644    0.1957E-18
  55032.715    0.2140E-18
  55032.785    0.2318E-18
  55032.856    0.2528E-18
  55032.926    0.2755E-18
  55032.996    0.2999E-18
  55033.067    0.3340E-18
  55033.137    0.3719E-18
  55033.208    0.4137E-18
  55033.278    0.4531E-18
  55033.348    0.4970E-18
  55033.419    0.5428E-18
  55033.489    0.5901E-18
  55033.559    0.6345E-18
  55033.630    0.6756E-18
  55033.700    0.6944E-18
  55033.771    0.7336E-18
  55033.841    0.7670E-18
  55033.911    0.7931E-18
  55033.982    0.8026E-18
  55034.052    0.8042E-18
  55034.123    0.7962E-18
  55034.193    0.7962E-18
  55034.263    0.7837E-18
  55034.334    0.7114E-18
  55034.404    0.6813E-18
  55034.474    0.6501E-18
  55034.545    0.6139E-18
  55034.615    0.5740E-18
  55034.686    0.5373E-18
  55034.756    0.5012E-18
  55034.826    0.4643E-18
  55034.897    0.4294E-18
  55034.967    0.3956E-18
  55035.038    0.3637E-18
  55035.108    0.3366E-18
  55035.178    0.2939E-18
  55035.249    0.2762E-18
  55035.319    0.2633E-18
  55035.390    0.2515E-18
  55035.460    0.2417E-18
  55035.530    0.2332E-18
  55035.601    0.2274E-18
  55035.671    0.2244E-18
  55035.741    0.2229E-18
  55035.812    0.2234E-18
  55035.882    0.2240E-18
  55035.953    0.2264E-18
  55036.023    0.2321E-18
  55036.093    0.2406E-18
  55036.164    0.2517E-18
  55036.234    0.2661E-18
  55036.305    0.2773E-18
  55036.375    0.2983E-18
  55036.445    0.3216E-18
  55036.516    0.3435E-18
  55036.586    0.3687E-18
  55036.657    0.3954E-18
  55036.727    0.4210E-18
  55036.797    0.4525E-18
  55036.868    0.4843E-18
  55036.938    0.5154E-18
  55037.009    0.5426E-18
  55037.079    0.5648E-18
  55037.149    0.5791E-18
  55037.220    0.5905E-18
  55037.290    0.5981E-18
  55037.361    0.6023E-18
  55037.431    0.6001E-18
  55037.501    0.5906E-18
  55037.572    0.5769E-18
  55037.642    0.5594E-18
  55037.713    0.5385E-18
  55037.783    0.5148E-18
  55037.853    0.4901E-18
  55037.924    0.4639E-18
  55037.994    0.4354E-18
  55038.065    0.4087E-18
  55038.135    0.3816E-18
  55038.205    0.3535E-18
  55038.276    0.2988E-18
  55038.346    0.2772E-18
  55038.417    0.2567E-18
  55038.487    0.2361E-18
  55038.558    0.2160E-18
  55038.628    0.1978E-18
  55038.698    0.1835E-18
  55038.769    0.1709E-18
  55038.839    0.1608E-18
  55038.910    0.1473E-18
  55038.980    0.1411E-18
  55039.050    0.1356E-18
  55039.121    0.1306E-18
  55039.191    0.1277E-18
  55039.262    0.1260E-18
  55039.332    0.1243E-18
  55039.402    0.1174E-18
  55039.473    0.1141E-18
  55039.543    0.1101E-18
  55039.614    0.1061E-18
  55039.684    0.1021E-18
  55039.755    0.9490E-19
  55039.825    0.9092E-19
  55039.895    0.8722E-19
  55039.966    0.8323E-19
  55040.036    0.7911E-19
  55040.107    0.7566E-19
  55040.177    0.7153E-19
  55040.247    0.6776E-19
  55040.318    0.6403E-19
  55040.388    0.6053E-19
  55040.459    0.5782E-19
  55040.529    0.5536E-19
  55040.599    0.5365E-19
  55040.670    0.5242E-19
  55040.740    0.5143E-19
  55040.811    0.5086E-19
  55040.881    0.4931E-19
  55040.952    0.4781E-19
  55041.022    0.4637E-19
  55041.092    0.4538E-19
  55041.163    0.4496E-19
  55041.233    0.4453E-19
  55041.304    0.4421E-19
  55041.374    0.4408E-19
  55041.445    0.4385E-19
  55041.515    0.4315E-19
  55041.585    0.4267E-19
  55041.656    0.4247E-19
  55041.726    0.4226E-19
  55041.797    0.4193E-19
  55041.867    0.4197E-19
  55041.937    0.4232E-19
  55042.008    0.4272E-19
  55042.078    0.4341E-19
  55042.149    0.4404E-19
  55042.219    0.4428E-19
  55042.290    0.4414E-19
  55042.360    0.4426E-19
  55042.430    0.4514E-19
  55042.501    0.4721E-19
  55042.571    0.4851E-19
  55042.642    0.5029E-19
  55042.712    0.5155E-19
  55042.783    0.5208E-19
  55042.853    0.5344E-19
  55042.923    0.5568E-19
  55042.994    0.5786E-19
  55043.064    0.5951E-19
  55043.135    0.6118E-19
  55043.205    0.6368E-19
  55043.276    0.6616E-19
  55043.346    0.6829E-19
  55043.416    0.7033E-19
  55043.487    0.7261E-19
  55043.557    0.7524E-19
  55043.628    0.7825E-19
  55043.698    0.8201E-19
  55043.769    0.8651E-19
  55043.839    0.9133E-19
  55043.909    0.9701E-19
  55043.980    0.1064E-18
  55044.050    0.1136E-18
  55044.121    0.1260E-18
  55044.191    0.1335E-18
  55044.262    0.1400E-18
  55044.332    0.1480E-18
  55044.403    0.1557E-18
  55044.473    0.1634E-18
  55044.543    0.1647E-18
  55044.614    0.1738E-18
  55044.684    0.1852E-18
  55044.755    0.1988E-18
  55044.825    0.2135E-18
  55044.896    0.2295E-18
  55044.966    0.2466E-18
  55045.036    0.2667E-18
  55045.107    0.2809E-18
  55045.177    0.3083E-18
  55045.248    0.3422E-18
  55045.318    0.3766E-18
  55045.389    0.4108E-18
  55045.459    0.4475E-18
  55045.530    0.4854E-18
  55045.600    0.5260E-18
  55045.670    0.5704E-18
  55045.741    0.6181E-18
  55045.811    0.6619E-18
  55045.882    0.6989E-18
  55045.952    0.7066E-18
  55046.023    0.7426E-18
  55046.093    0.7781E-18
  55046.164    0.8113E-18
  55046.234    0.8346E-18
  55046.304    0.8502E-18
  55046.375    0.8590E-18
  55046.445    0.8554E-18
  55046.516    0.8466E-18
  55046.586    0.8346E-18
  55046.657    0.8228E-18
  55046.727    0.8048E-18
  55046.798    0.7235E-18
  55046.868    0.6933E-18
  55046.938    0.6591E-18
  55047.009    0.6204E-18
  55047.079    0.5876E-18
  55047.150    0.5652E-18
  55047.220    0.5460E-18
  55047.291    0.5260E-18
  55047.361    0.5070E-18
  55047.432    0.4864E-18
  55047.502    0.4655E-18
  55047.572    0.4435E-18
  55047.643    0.4219E-18
  55047.713    0.4016E-18
  55047.784    0.3849E-18
  55047.854    0.3686E-18
  55047.925    0.3537E-18
  55047.995    0.3339E-18
  55048.066    0.2906E-18
  55048.136    0.2723E-18
  55048.207    0.2545E-18
  55048.277    0.2377E-18
  55048.347    0.2241E-18
  55048.418    0.2131E-18
  55048.488    0.2035E-18
  55048.559    0.1942E-18
  55048.629    0.1864E-18
  55048.700    0.1804E-18
  55048.770    0.1774E-18
  55048.841    0.1765E-18
  55048.911    0.1783E-18
  55048.982    0.1798E-18
  55049.052    0.1820E-18
  55049.123    0.1855E-18
  55049.193    0.1904E-18
  55049.263    0.1975E-18
  55049.334    0.2079E-18
  55049.404    0.2172E-18
  55049.475    0.2249E-18
  55049.545    0.2333E-18
  55049.616    0.2423E-18
  55049.686    0.2506E-18
  55049.757    0.2571E-18
  55049.827    0.2614E-18
  55049.898    0.2669E-18
  55049.968    0.2706E-18
  55050.039    0.2711E-18
  55050.109    0.2759E-18
  55050.179    0.2824E-18
  55050.250    0.2938E-18
  55050.320    0.3028E-18
  55050.391    0.3067E-18
  55050.461    0.3068E-18
  55050.532    0.3099E-18
  55050.602    0.3142E-18
  55050.673    0.3215E-18
  55050.743    0.3279E-18
  55050.814    0.3335E-18
  55050.884    0.3424E-18
  55050.955    0.3530E-18
  55051.025    0.3643E-18
  55051.095    0.3766E-18
  55051.166    0.3957E-18
  55051.236    0.4155E-18
  55051.307    0.4350E-18
  55051.377    0.4525E-18
  55051.448    0.4683E-18
  55051.518    0.4803E-18
  55051.589    0.4869E-18
  55051.659    0.4881E-18
  55051.730    0.4812E-18
  55051.800    0.4678E-18
  55051.871    0.4504E-18
  55051.941    0.4347E-18
  55052.012    0.4169E-18
  55052.082    0.3969E-18
  55052.153    0.3751E-18
  55052.223    0.3490E-18
  55052.294    0.2930E-18
  55052.364    0.2691E-18
  55052.434    0.2457E-18
  55052.505    0.2250E-18
  55052.575    0.2047E-18
  55052.646    0.1853E-18
  55052.716    0.1699E-18
  55052.787    0.1575E-18
  55052.857    0.1370E-18
  55052.928    0.1276E-18
  55052.998    0.1201E-18
  55053.069    0.1126E-18
  55053.139    0.1103E-18
  55053.210    0.1088E-18
  55053.280    0.1074E-18
  55053.351    0.1063E-18
  55053.421    0.1065E-18
  55053.492    0.1063E-18
  55053.562    0.1068E-18
  55053.633    0.1066E-18
  55053.703    0.1054E-18
  55053.774    0.1051E-18
  55053.844    0.1044E-18
  55053.914    0.1018E-18
  55053.985    0.9927E-19
  55054.055    0.9599E-19
  55054.126    0.9291E-19
  55054.196    0.8855E-19
  55054.267    0.8344E-19
  55054.337    0.7849E-19
  55054.408    0.7355E-19
  55054.478    0.6909E-19
  55054.549    0.6461E-19
  55054.619    0.5988E-19
  55054.690    0.5519E-19
  55054.760    0.5146E-19
  55054.831    0.4771E-19
  55054.901    0.4325E-19
  55054.972    0.4037E-19
  55055.042    0.3787E-19
  55055.113    0.3579E-19
  55055.183    0.3391E-19
  55055.254    0.3214E-19
  55055.324    0.3031E-19
  55055.395    0.2863E-19
  55055.465    0.2744E-19
  55055.536    0.2655E-19
  55055.606    0.2544E-19
  55055.677    0.2441E-19
  55055.747    0.2351E-19
  55055.818    0.2279E-19
  55055.888    0.2205E-19
  55055.959    0.2119E-19
  55056.029    0.2043E-19
  55056.100    0.1955E-19
  55056.170    0.1851E-19
  55056.241    0.1793E-19
  55056.311    0.1748E-19
  55056.382    0.1714E-19
  55056.452    0.1678E-19
  55056.523    0.1626E-19
  55056.593    0.1585E-19
  55056.664    0.1542E-19
  55056.734    0.1495E-19
  55056.805    0.1449E-19
  55056.875    0.1404E-19
  55056.946    0.1361E-19
  55057.016    0.1330E-19
  55057.087    0.1304E-19
  55057.157    0.1288E-19
  55057.228    0.1278E-19
  55057.298    0.1258E-19
  55057.369    0.1230E-19
  55057.439    0.1205E-19
  55057.510    0.1181E-19
  55057.580    0.1160E-19
  55057.651    0.1133E-19
  55057.721    0.1116E-19
  55057.792    0.1105E-19
  55057.862    0.1081E-19
  55057.933    0.1062E-19
  55058.003    0.1051E-19
  55058.074    0.1043E-19
  55058.144    0.1029E-19
  55058.215    0.1009E-19
  55058.285    0.9884E-20
  55058.356    0.9715E-20
  55058.426    0.9595E-20
  55058.497    0.9559E-20
  55058.567    0.9456E-20
  55058.638    0.9280E-20
  55058.708    0.9111E-20
  55058.779    0.8880E-20
  55058.849    0.8672E-20
  55058.920    0.8593E-20
  55058.990    0.8639E-20
  55059.061    0.8648E-20
  55059.131    0.8653E-20
  55059.202    0.8674E-20
  55059.272    0.8582E-20
  55059.343    0.8526E-20
  55059.413    0.8523E-20
  55059.484    0.8557E-20
  55059.554    0.8597E-20
  55059.625    0.8658E-20
  55059.695    0.8809E-20
  55059.766    0.9035E-20
  55059.836    0.9193E-20
  55059.907    0.9322E-20
  55059.977    0.9504E-20
  55060.048    0.9734E-20
  55060.118    0.9697E-20
  55060.189    0.9660E-20
  55060.259    0.9726E-20
  55060.330    0.9847E-20
  55060.400    0.1005E-19
  55060.471    0.1008E-19
  55060.541    0.1001E-19
  55060.612    0.9991E-20
  55060.682    0.9866E-20
  55060.753    0.9800E-20
  55060.823    0.9748E-20
  55060.894    0.9688E-20
  55060.964    0.9426E-20
  55061.035    0.9091E-20
  55061.105    0.8637E-20
  55061.176    0.8217E-20
  55061.246    0.7699E-20
  55061.317    0.7385E-20
  55061.388    0.7072E-20
  55061.458    0.6738E-20
  55061.529    0.6387E-20
  55061.599    0.6184E-20
  55061.670    0.5960E-20
  55061.740    0.5751E-20
  55061.811    0.5599E-20
  55061.881    0.5477E-20
  55061.952    0.5363E-20
  55062.022    0.5275E-20
  55062.093    0.5236E-20
  55062.163    0.5184E-20
  55062.234    0.5086E-20
  55062.304    0.4962E-20
  55062.375    0.4839E-20
  55062.445    0.4745E-20
  55062.516    0.4729E-20
  55062.586    0.4698E-20
  55062.657    0.4631E-20
  55062.727    0.4561E-20
  55062.798    0.4514E-20
  55062.868    0.4507E-20
  55062.939    0.4512E-20
  55063.010    0.4444E-20
  55063.080    0.4366E-20
  55063.151    0.4278E-20
  55063.221    0.4199E-20
  55063.292    0.4129E-20
  55063.362    0.4039E-20
  55063.433    0.3963E-20
  55063.503    0.3950E-20
  55063.574    0.3929E-20
  55063.644    0.3868E-20
  55063.715    0.3862E-20
  55063.785    0.3860E-20
  55063.856    0.3819E-20
  55063.926    0.3778E-20
  55063.997    0.3745E-20
  55064.067    0.3716E-20
  55064.138    0.3667E-20
  55064.209    0.3638E-20
  55064.279    0.3653E-20
  55064.350    0.3643E-20
  55064.420    0.3581E-20
  55064.491    0.3525E-20
  55064.561    0.3481E-20
  55064.632    0.3451E-20
  55064.702    0.3421E-20
  55064.773    0.3387E-20
  55064.843    0.3383E-20
  55064.914    0.3376E-20
  55064.984    0.3348E-20
  55065.055    0.3305E-20
  55065.125    0.3218E-20
  55065.196    0.3162E-20
  55065.267    0.3094E-20
  55065.337    0.3024E-20
  55065.408    0.3015E-20
  55065.478    0.3042E-20
  55065.549    0.3043E-20
  55065.619    0.3042E-20
  55065.690    0.3020E-20
  55065.760    0.2985E-20
  55065.831    0.2974E-20
  55065.901    0.2969E-20
  55065.972    0.2931E-20
  55066.042    0.2898E-20
  55066.113    0.2878E-20
  55066.184    0.2863E-20
  55066.254    0.2860E-20
  55066.325    0.2884E-20
  55066.395    0.2854E-20
  55066.466    0.2772E-20
  55066.536    0.2739E-20
  55066.607    0.2709E-20
  55066.677    0.2696E-20
  55066.748    0.2689E-20
  55066.818    0.2689E-20
  55066.889    0.2701E-20
  55066.960    0.2667E-20
  55067.030    0.2630E-20
  55067.101    0.2601E-20
  55067.171    0.2587E-20
  55067.242    0.2578E-20
  55067.312    0.2552E-20
  55067.383    0.2533E-20
  55067.453    0.2506E-20
  55067.524    0.2465E-20
  55067.594    0.2434E-20
  55067.665    0.2425E-20
  55067.736    0.2428E-20
  55067.806    0.2436E-20
  55067.877    0.2426E-20
  55067.947    0.2408E-20
  55068.018    0.2406E-20
  55068.088    0.2394E-20
  55068.159    0.2362E-20
  55068.229    0.2326E-20
  55068.300    0.2286E-20
  55068.370    0.2263E-20
  55068.441    0.2255E-20
  55068.512    0.2228E-20
  55068.582    0.2185E-20
  55068.653    0.2159E-20
  55068.723    0.2145E-20
  55068.794    0.2134E-20
  55068.864    0.2141E-20
  55068.935    0.2166E-20
  55069.005    0.2183E-20
  55069.076    0.2179E-20
  55069.147    0.2179E-20
  55069.217    0.2187E-20
  55069.288    0.2200E-20
  55069.358    0.2192E-20
  55069.429    0.2166E-20
  55069.499    0.2134E-20
  55069.570    0.2116E-20
  55069.640    0.2099E-20
  55069.711    0.2089E-20
  55069.782    0.2061E-20
  55069.852    0.2030E-20
  55069.923    0.2005E-20
  55069.993    0.1970E-20
  55070.064    0.1961E-20
  55070.134    0.1951E-20
  55070.205    0.1931E-20
  55070.276    0.1922E-20
  55070.346    0.1917E-20
  55070.417    0.1927E-20
  55070.487    0.1935E-20
  55070.558    0.1918E-20
  55070.628    0.1887E-20
  55070.699    0.1864E-20
  55070.769    0.1847E-20
  55070.840    0.1838E-20
  55070.911    0.1846E-20
  55070.981    0.1858E-20
  55071.052    0.1864E-20
  55071.122    0.1867E-20
  55071.193    0.1841E-20
  55071.263    0.1820E-20
  55071.334    0.1812E-20
  55071.405    0.1803E-20
  55071.475    0.1780E-20
  55071.546    0.1759E-20
  55071.616    0.1744E-20
  55071.687    0.1730E-20
  55071.757    0.1713E-20
  55071.828    0.1697E-20
  55071.899    0.1672E-20
  55071.969    0.1654E-20
  55072.040    0.1661E-20
  55072.110    0.1674E-20
  55072.181    0.1683E-20
  55072.251    0.1675E-20
  55072.322    0.1672E-20
  55072.393    0.1670E-20
  55072.463    0.1659E-20
  55072.534    0.1660E-20
  55072.604    0.1655E-20
  55072.675    0.1630E-20
  55072.745    0.1612E-20
  55072.816    0.1595E-20
  55072.887    0.1563E-20
  55072.957    0.1543E-20
  55073.028    0.1551E-20
  55073.098    0.1571E-20
  55073.169    0.1590E-20
  55073.239    0.1583E-20
  55073.310    0.1569E-20
  55073.381    0.1562E-20
  55073.451    0.1544E-20
  55073.522    0.1547E-20
  55073.592    0.1560E-20
  55073.663    0.1558E-20
  55073.733    0.1525E-20
  55073.804    0.1492E-20
  55073.875    0.1470E-20
  55073.945    0.1468E-20
  55074.016    0.1470E-20
  55074.086    0.1474E-20
  55074.157    0.1478E-20
  55074.227    0.1493E-20
  55074.298    0.1488E-20
  55074.369    0.1454E-20
  55074.439    0.1419E-20
  55074.510    0.1390E-20
  55074.580    0.1379E-20
  55074.651    0.1377E-20
  55074.722    0.1389E-20
  55074.792    0.1399E-20
  55074.863    0.1400E-20
  55074.933    0.1403E-20
  55075.004    0.1380E-20
  55075.074    0.1357E-20
  55075.145    0.1340E-20
  55075.216    0.1331E-20
  55075.286    0.1319E-20
  55075.357    0.1310E-20
  55075.427    0.1319E-20
  55075.498    0.1313E-20
  55075.569    0.1295E-20
  55075.639    0.1284E-20
  55075.710    0.1280E-20
  55075.780    0.1269E-20
  55075.851    0.1250E-20
  55075.922    0.1249E-20
  55075.992    0.1251E-20
  55076.063    0.1255E-20
  55076.133    0.1269E-20
  55076.204    0.1309E-20
  55076.274    0.1332E-20
  55076.345    0.1323E-20
  55076.416    0.1306E-20
  55076.486    0.1297E-20
  55076.557    0.1272E-20
  55076.627    0.1239E-20
  55076.698    0.1225E-20
  55076.769    0.1224E-20
  55076.839    0.1228E-20
  55076.910    0.1232E-20
  55076.980    0.1237E-20
  55077.051    0.1226E-20
  55077.122    0.1214E-20
  55077.192    0.1200E-20
  55077.263    0.1195E-20
  55077.333    0.1189E-20
  55077.404    0.1180E-20
  55077.475    0.1185E-20
  55077.545    0.1195E-20
  55077.616    0.1182E-20
  55077.686    0.1172E-20
  55077.757    0.1169E-20
  55077.828    0.1143E-20
  55077.898    0.1115E-20
  55077.969    0.1109E-20
  55078.039    0.1109E-20
  55078.110    0.1106E-20
  55078.181    0.1098E-20
  55078.251    0.1086E-20
  55078.322    0.1092E-20
  55078.392    0.1098E-20
  55078.463    0.1089E-20
  55078.534    0.1084E-20
  55078.604    0.1075E-20
  55078.675    0.1067E-20
  55078.745    0.1053E-20
  55078.816    0.1037E-20
  55078.887    0.1042E-20
  55078.957    0.1048E-20
  55079.028    0.1053E-20
  55079.098    0.1048E-20
  55079.169    0.1051E-20
  55079.240    0.1042E-20
  55079.310    0.1034E-20
  55079.381    0.1048E-20
  55079.451    0.1059E-20
  55079.522    0.1064E-20
  55079.593    0.1064E-20
  55079.663    0.1037E-20
  55079.734    0.1008E-20
  55079.804    0.9813E-21
  55079.875    0.9735E-21
  55079.946    0.9812E-21
  55080.016    0.9969E-21
  55080.087    0.1013E-20
  55080.157    0.1015E-20
  55080.228    0.1010E-20
  55080.299    0.9863E-21
  55080.369    0.9579E-21
  55080.440    0.9451E-21
  55080.510    0.9451E-21
  55080.581    0.9400E-21
  55080.652    0.9375E-21
  55080.722    0.9476E-21
  55080.793    0.9501E-21
  55080.864    0.9399E-21
  55080.934    0.9500E-21
  55081.005    0.9757E-21
  55081.075    0.9861E-21
  55081.146    0.9939E-21
  55081.217    0.1002E-20
  55081.287    0.1007E-20
  55081.358    0.9991E-21
  55081.428    0.9627E-21
  55081.499    0.9321E-21
  55081.570    0.9146E-21
  55081.640    0.9145E-21
  55081.711    0.9195E-21
  55081.782    0.9170E-21
  55081.852    0.9170E-21
  55081.923    0.9020E-21
  55081.993    0.8897E-21
  55082.064    0.8823E-21
  55082.135    0.8823E-21
  55082.205    0.8896E-21
  55082.276    0.8823E-21
  55082.346    0.8871E-21
  55082.417    0.8945E-21
  55082.488    0.8969E-21
  55082.558    0.8895E-21
  55082.629    0.8748E-21
  55082.700    0.8627E-21
  55082.770    0.8435E-21
  55082.841    0.8316E-21
  55082.911    0.8245E-21
  55082.982    0.8244E-21
  55083.053    0.8244E-21
  55083.123    0.8315E-21
  55083.194    0.8267E-21
  55083.265    0.8267E-21
  55083.335    0.8243E-21
  55083.406    0.8172E-21
  55083.476    0.8102E-21
  55083.547    0.8032E-21
  55083.618    0.7985E-21
  55083.688    0.7846E-21
  55083.759    0.7800E-21
  55083.830    0.7777E-21
  55083.900    0.7731E-21
  55083.971    0.7846E-21
  55084.041    0.8100E-21
  55084.112    0.8241E-21
  55084.183    0.8146E-21
  55084.253    0.8030E-21
  55084.324    0.7890E-21
  55084.395    0.7821E-21
  55084.465    0.7798E-21
  55084.536    0.7775E-21
  55084.606    0.7729E-21
  55084.677    0.7615E-21
  55084.748    0.7615E-21
  55084.818    0.7683E-21
  55084.889    0.7660E-21
  55084.960    0.7546E-21
  55085.030    0.7523E-21
  55085.101    0.7546E-21
  55085.172    0.7704E-21
  55085.242    0.7841E-21
  55085.313    0.7887E-21
  55085.383    0.7887E-21
  55085.454    0.7818E-21
  55085.525    0.7703E-21
  55085.595    0.7544E-21
  55085.666    0.7253E-21
  55085.737    0.6989E-21
  55085.807    0.6794E-21
  55085.878    0.6902E-21
  55085.949    0.7186E-21
  55086.019    0.7386E-21
  55086.090    0.7475E-21
  55086.160    0.7633E-21
  55086.231    0.7724E-21
  55086.302    0.7678E-21
  55086.372    0.7564E-21
  55086.443    0.7519E-21
  55086.514    0.7632E-21
  55086.584    0.7609E-21
  55086.655    0.7496E-21
  55086.726    0.7428E-21
  55086.796    0.7405E-21
  55086.867    0.7405E-21
  55086.937    0.7405E-21
  55087.008    0.7205E-21
  55087.079    0.6898E-21
  55087.149    0.6833E-21
  55087.220    0.6876E-21
  55087.291    0.6962E-21
  55087.361    0.7071E-21
  55087.432    0.7071E-21
  55087.503    0.6940E-21
  55087.573    0.6831E-21
  55087.644    0.6702E-21
  55087.715    0.6510E-21
  55087.785    0.6468E-21
  55087.856    0.6489E-21
  55087.927    0.6383E-21
  55087.997    0.6278E-21
  55088.068    0.6174E-21
  55088.138    0.6236E-21
  55088.209    0.6361E-21
  55088.280    0.6403E-21
  55088.350    0.6508E-21
  55088.421    0.6550E-21
  55088.492    0.6508E-21
  55088.562    0.6381E-21
  55088.633    0.6193E-21
  55088.704    0.6069E-21
  55088.774    0.6130E-21
  55088.845    0.6192E-21
  55088.916    0.6254E-21
  55088.986    0.6275E-21
  55089.057    0.6233E-21
  55089.128    0.6150E-21
  55089.198    0.6170E-21
  55089.269    0.6108E-21
  55089.340    0.6129E-21
  55089.410    0.6046E-21
  55089.481    0.5964E-21
  55089.551    0.5882E-21
  55089.622    0.5699E-21
  55089.693    0.5619E-21
  55089.763    0.5579E-21
  55089.834    0.5558E-21
  55089.905    0.5618E-21
  55089.975    0.5558E-21
  55090.046    0.5498E-21
  55090.117    0.5518E-21
  55090.187    0.5637E-21
  55090.258    0.5778E-21
  55090.329    0.5839E-21
  55090.399    0.5859E-21
  55090.470    0.5960E-21
  55090.541    0.5919E-21
  55090.611    0.5939E-21
  55090.682    0.6042E-21
  55090.753    0.6083E-21
  55090.823    0.6000E-21
  55090.894    0.5918E-21
  55090.965    0.5877E-21
  55091.035    0.5655E-21
  55091.106    0.5654E-21
  55091.177    0.5815E-21
  55091.247    0.5734E-21
  55091.318    0.5534E-21
  55091.389    0.5454E-21
  55091.459    0.5493E-21
  55091.530    0.5573E-21
  55091.601    0.5794E-21
  55091.671    0.5854E-21
  55091.742    0.5753E-21
  55091.813    0.5692E-21
  55091.883    0.5692E-21
  55091.954    0.5672E-21
  55092.025    0.5611E-21
  55092.095    0.5511E-21
  55092.166    0.5392E-21
  55092.237    0.5293E-21
  55092.307    0.5234E-21
  55092.378    0.5176E-21
  55092.449    0.5156E-21
  55092.519    0.5273E-21
  55092.590    0.5410E-21
  55092.661    0.5489E-21
  55092.731    0.5489E-21
  55092.802    0.5509E-21
  55092.873    0.5489E-21
  55092.943    0.5409E-21
  55093.014    0.5389E-21
  55093.085    0.5488E-21
  55093.155    0.5547E-21
  55093.226    0.5388E-21
  55093.297    0.5153E-21
  55093.367    0.5017E-21
  55093.438    0.5036E-21
  55093.509    0.5055E-21
  55093.579    0.5172E-21
  55093.650    0.5387E-21
  55093.721    0.5466E-21
  55093.791    0.5486E-21
  55093.862    0.5505E-21
  55093.933    0.5505E-21
  55094.003    0.5545E-21
  55094.074    0.5644E-21
  55094.145    0.5745E-21
  55094.215    0.5704E-21
  55094.286    0.5624E-21
  55094.357    0.5664E-21
  55094.427    0.5866E-21
  55094.498    0.5947E-21
  55094.569    0.5906E-21
  55094.640    0.5967E-21
  55094.710    0.5987E-21
  55094.781    0.5864E-21
  55094.852    0.5783E-21
  55094.922    0.5803E-21
  55094.993    0.5884E-21
  55095.064    0.6068E-21
  55095.134    0.6234E-21
  55095.205    0.6380E-21
  55095.276    0.6464E-21
  55095.346    0.6380E-21
  55095.417    0.6549E-21
  55095.488    0.6698E-21
  55095.558    0.6655E-21
  55095.629    0.6442E-21
  55095.700    0.6253E-21
  55095.770    0.6274E-21
  55095.841    0.6232E-21
  55095.912    0.6169E-21
  55095.982    0.6210E-21
  55096.053    0.6252E-21
  55096.124    0.6148E-21
  55096.195    0.6044E-21
  55096.265    0.5860E-21
  55096.336    0.5778E-21
  55096.407    0.5778E-21
  55096.477    0.5778E-21
  55096.548    0.5757E-21
  55096.619    0.5717E-21
  55096.689    0.5716E-21
  55096.760    0.5716E-21
  55096.831    0.5595E-21
  55096.901    0.5396E-21
  55096.972    0.5141E-21
  55097.043    0.4851E-21
  55097.113    0.4661E-21
  55097.184    0.4737E-21
  55097.255    0.4736E-21
  55097.326    0.4793E-21
  55097.396    0.4850E-21
  55097.467    0.4736E-21
  55097.538    0.4679E-21
  55097.608    0.4773E-21
  55097.679    0.4811E-21
  55097.750    0.4754E-21
  55097.820    0.4527E-21
  55097.891    0.4285E-21
  55097.962    0.4212E-21
  55098.033    0.4193E-21
  55098.103    0.4174E-21
  55098.174    0.4156E-21
  55098.245    0.4137E-21
  55098.315    0.4155E-21
  55098.386    0.4173E-21
  55098.457    0.4173E-21
  55098.527    0.4100E-21
  55098.598    0.4100E-21
  55098.669    0.4191E-21
  55098.739    0.4154E-21
  55098.810    0.4172E-21
  55098.881    0.4190E-21
  55098.952    0.4153E-21
  55099.022    0.4116E-21
  55099.093    0.4098E-21
  55099.164    0.4080E-21
  55099.234    0.4043E-21
  55099.305    0.4006E-21
  55099.376    0.4042E-21
  55099.446    0.4152E-21
  55099.517    0.4170E-21
  55099.588    0.4151E-21
  55099.659    0.4096E-21
  55099.729    0.3987E-21
  55099.800    0.3806E-21
  55099.871    0.3717E-21
  55099.941    0.3646E-21
