 16O2;(9,0);79K;54376-682 cm-1;4435 pts
     WNO          SIGMA  
  54376.117   -0.1016E-21
  54376.186   -0.1016E-21
  54376.254   -0.8450E-22
  54376.323   -0.5343E-22
  54376.391   -0.3264E-22
  54376.460   -0.4317E-22
  54376.529   -0.6409E-22
  54376.597   -0.6763E-22
  54376.666   -0.7809E-22
  54376.734   -0.9541E-22
  54376.803   -0.9550E-22
  54376.871   -0.1059E-21
  54376.940   -0.1197E-21
  54377.008   -0.5772E-22
  54377.077   -0.8979E-23
  54377.145   -0.2044E-23
  54377.214    0.1386E-23
  54377.282   -0.9224E-23
  54377.351   -0.3029E-22
  54377.419   -0.1639E-22
  54377.488    0.8090E-23
  54377.556    0.1505E-22
  54377.625    0.1849E-22
  54377.693    0.2900E-22
  54377.762    0.2539E-22
  54377.831    0.1472E-22
  54377.899    0.7599E-23
  54377.968    0.4858E-24
  54378.036    0.3918E-23
  54378.105    0.1440E-22
  54378.173    0.7272E-23
  54378.242   -0.2437E-22
  54378.310   -0.5581E-22
  54378.379   -0.5241E-22
  54378.447   -0.4206E-22
  54378.516   -0.3866E-22
  54378.584   -0.2478E-22
  54378.653   -0.1086E-22
  54378.721   -0.2844E-22
  54378.790   -0.5291E-22
  54378.858   -0.8071E-22
  54378.927   -0.1118E-21
  54378.996   -0.1153E-21
  54379.064   -0.8441E-22
  54379.133   -0.7926E-23
  54379.201    0.5200E-22
  54379.270    0.7685E-22
  54379.338    0.8034E-22
  54379.407    0.3049E-22
  54379.475    0.3749E-22
  54379.544    0.5159E-22
  54379.612    0.4441E-22
  54379.681    0.4433E-22
  54379.749    0.1948E-22
  54379.818    0.1791E-23
  54379.886   -0.2284E-22
  54379.955   -0.5082E-22
  54380.024   -0.4046E-22
  54380.092   -0.1258E-22
  54380.161    0.4898E-23
  54380.229    0.2244E-22
  54380.298    0.1883E-22
  54380.366   -0.5890E-23
  54380.435   -0.4095E-22
  54380.503   -0.5843E-22
  54380.572   -0.5156E-22
  54380.640   -0.5512E-22
  54380.709   -0.7254E-22
  54380.777   -0.6916E-22
  54380.846   -0.6577E-22
  54380.915   -0.5892E-22
  54380.983   -0.3463E-22
  54381.052   -0.1723E-22
  54381.120   -0.1381E-22
  54381.189   -0.2089E-22
  54381.257   -0.5238E-22
  54381.326   -0.8365E-22
  54381.394   -0.1010E-21
  54381.463   -0.1045E-21
  54381.531   -0.1080E-21
  54381.600   -0.1150E-21
  54381.668   -0.1082E-21
  54381.737   -0.1117E-21
  54381.806   -0.6345E-22
  54381.874   -0.3918E-22
  54381.943   -0.4972E-22
  54382.011   -0.5328E-22
  54382.080   -0.3943E-22
  54382.148   -0.3951E-22
  54382.217   -0.1862E-22
  54382.285    0.5880E-23
  54382.354    0.3051E-22
  54382.422    0.1629E-22
  54382.491    0.2681E-22
  54382.560    0.1613E-22
  54382.628    0.8992E-23
  54382.697    0.1596E-22
  54382.765    0.2294E-22
  54382.834    0.2286E-22
  54382.902   -0.5408E-23
  54382.971   -0.1251E-22
  54383.039    0.1459E-23
  54383.108    0.2607E-22
  54383.176    0.4015E-22
  54383.245    0.4007E-22
  54383.314    0.3644E-22
  54383.382    0.1514E-22
  54383.451    0.9677E-24
  54383.519   -0.1317E-22
  54383.588   -0.1325E-22
  54383.656    0.7220E-24
  54383.725    0.1826E-22
  54383.793    0.2525E-22
  54383.862    0.1810E-22
  54383.930   -0.1366E-22
  54383.999   -0.1725E-22
  54384.068    0.2304E-24
  54384.136    0.3901E-22
  54384.205    0.5313E-22
  54384.273    0.3530E-22
  54384.342    0.3422E-23
  54384.410   -0.2124E-22
  54384.479   -0.2833E-22
  54384.547   -0.2141E-22
  54384.616   -0.2849E-22
  54384.684   -0.4254E-22
  54384.753   -0.4959E-22
  54384.822   -0.2524E-22
  54384.890   -0.1481E-22
  54384.959    0.6207E-23
  54385.027   -0.7948E-23
  54385.096   -0.4652E-22
  54385.164   -0.6052E-22
  54385.233   -0.4320E-22
  54385.301   -0.2231E-22
  54385.370   -0.4844E-23
  54385.439    0.1975E-22
  54385.507    0.6583E-22
  54385.576    0.8004E-22
  54385.644    0.6566E-22
  54385.713    0.3712E-22
  54385.781    0.1228E-22
  54385.850   -0.3346E-22
  54385.918   -0.7530E-22
  54385.987   -0.8922E-22
  54386.056   -0.7893E-22
  54386.124   -0.4426E-22
  54386.193    0.1209E-23
  54386.261    0.3647E-22
  54386.330    0.5415E-22
  54386.398    0.6119E-22
  54386.467    0.2913E-22
  54386.535   -0.2720E-23
  54386.604   -0.3436E-22
  54386.673   -0.6580E-22
  54386.741   -0.7629E-22
  54386.810   -0.6596E-22
  54386.878   -0.2769E-22
  54386.947    0.3074E-24
  54387.015   -0.6811E-23
  54387.084    0.7190E-23
  54387.152    0.3540E-22
  54387.221    0.4953E-22
  54387.290    0.4944E-22
  54387.358    0.3515E-22
  54387.427   -0.3786E-23
  54387.495   -0.3193E-22
  54387.564   -0.3551E-22
  54387.632   -0.2860E-22
  54387.701    0.2927E-23
  54387.770    0.2049E-22
  54387.838    0.2041E-22
  54387.907    0.6206E-23
  54387.975    0.6124E-23
  54388.044    0.6042E-23
  54388.112    0.2362E-22
  54388.181    0.3417E-22
  54388.249   -0.1251E-23
  54388.318   -0.1890E-22
  54388.387   -0.5394E-22
  54388.455   -0.7487E-22
  54388.524   -0.5758E-22
  54388.592   -0.3674E-22
  54388.661   -0.1581E-22
  54388.729    0.1228E-22
  54388.798    0.2989E-22
  54388.867    0.3690E-22
  54388.935    0.2972E-22
  54389.004    0.1902E-22
  54389.072    0.1540E-22
  54389.141    0.1885E-22
  54389.209    0.2939E-22
  54389.278    0.4707E-22
  54389.346    0.6837E-22
  54389.415    0.6115E-22
  54389.484    0.1491E-22
  54389.552   -0.3089E-22
  54389.621   -0.5193E-22
  54389.689   -0.4504E-22
  54389.758   -0.1712E-22
  54389.826    0.2511E-22
  54389.895    0.6415E-22
  54389.964    0.7837E-22
  54390.032    0.7471E-22
  54390.101    0.2833E-22
  54390.169   -0.3163E-22
  54390.238   -0.2821E-22
  54390.306   -0.1426E-22
  54390.375   -0.7314E-23
  54390.444    0.6698E-23
  54390.512    0.2075E-22
  54390.581    0.2775E-22
  54390.649    0.6452E-23
  54390.718   -0.2879E-22
  54390.786   -0.7419E-22
  54390.855   -0.9505E-22
  54390.924   -0.6046E-22
  54390.992   -0.5357E-22
  54391.061   -0.4668E-22
  54391.129   -0.4676E-22
  54391.198   -0.5033E-22
  54391.266   -0.5042E-22
  54391.335   -0.6095E-22
  54391.404   -0.5755E-22
  54391.472   -0.3669E-22
  54391.541   -0.2276E-22
  54391.609   -0.4385E-22
  54391.678   -0.7179E-22
  54391.746   -0.6840E-22
  54391.815   -0.6848E-22
  54391.884   -0.5464E-22
  54391.952   -0.2676E-22
  54392.021   -0.5764E-23
  54392.089    0.1533E-22
  54392.158    0.1878E-22
  54392.226    0.1163E-22
  54392.295    0.1154E-22
  54392.364   -0.2024E-22
  54392.432   -0.3084E-22
  54392.501    0.7081E-24
  54392.569    0.4153E-23
  54392.638   -0.2981E-23
  54392.706    0.4618E-24
  54392.775    0.1804E-22
  54392.844    0.3214E-22
  54392.912    0.2154E-24
  54392.981   -0.4549E-22
  54393.049   -0.5604E-22
  54393.118   -0.4216E-22
  54393.187   -0.2473E-22
  54393.255   -0.1952E-24
  54393.324   -0.3802E-23
  54393.392    0.3168E-23
  54393.461    0.4562E-22
  54393.529    0.5623E-22
  54393.598    0.6329E-22
  54393.667    0.5963E-22
  54393.735    0.6670E-22
  54393.804    0.7735E-22
  54393.872    0.5582E-22
  54393.941    0.3793E-22
  54394.009    0.6994E-22
  54394.078    0.9138E-22
  54394.147    0.8771E-22
  54394.215    0.6255E-22
  54394.284    0.1978E-22
  54394.352   -0.3664E-22
  54394.421   -0.7507E-22
  54394.490   -0.8556E-22
  54394.558   -0.7524E-22
  54394.627   -0.6837E-22
  54394.695   -0.5452E-22
  54394.764   -0.3013E-22
  54394.832   -0.3371E-22
  54394.901   -0.2328E-22
  54394.970   -0.2687E-22
  54395.038   -0.4446E-22
  54395.107   -0.6547E-22
  54395.175   -0.5510E-22
  54395.244   -0.3771E-22
  54395.313   -0.4828E-22
  54395.381   -0.5883E-22
  54395.450   -0.8324E-22
  54395.518   -0.9026E-22
  54395.587   -0.7994E-22
  54395.655   -0.7655E-22
  54395.724   -0.3478E-22
  54395.793    0.7355E-23
  54395.861    0.1081E-22
  54395.930    0.1780E-22
  54395.998    0.1418E-22
  54396.067   -0.1061E-22
  54396.136   -0.1069E-22
  54396.204   -0.3728E-23
  54396.273    0.1739E-22
  54396.341    0.1731E-22
  54396.410   -0.2157E-22
  54396.479   -0.3569E-22
  54396.547   -0.7663E-23
  54396.616    0.1344E-22
  54396.684    0.2399E-22
  54396.753    0.2745E-22
  54396.821    0.4872E-22
  54396.890    0.7724E-22
  54396.959    0.8434E-22
  54397.027    0.8785E-22
  54397.096    0.8417E-22
  54397.164    0.8409E-22
  54397.233    0.7683E-22
  54397.302    0.4102E-22
  54397.370   -0.5125E-23
  54397.439   -0.2632E-22
  54397.507    0.1768E-23
  54397.576    0.2647E-22
  54397.645    0.2284E-22
  54397.713   -0.2313E-22
  54397.782   -0.8257E-22
  54397.850   -0.1172E-21
  54397.919   -0.1242E-21
  54397.988   -0.1139E-21
  54398.056   -0.1002E-21
  54398.125   -0.5514E-22
  54398.193   -0.2584E-23
  54398.262    0.3631E-22
  54398.331    0.5761E-22
  54398.399    0.5753E-22
  54398.468    0.8612E-22
  54398.536    0.1077E-21
  54398.605    0.8596E-22
  54398.674    0.8228E-22
  54398.742    0.6427E-22
  54398.811    0.3921E-22
  54398.879    0.1781E-22
  54398.948    0.1773E-22
  54399.017    0.1765E-22
  54399.085    0.2111E-22
  54399.154    0.1040E-22
  54399.222    0.1740E-22
  54399.291    0.3152E-22
  54399.359    0.3499E-22
  54399.428    0.3135E-22
  54399.497    0.3127E-22
  54399.565    0.2053E-22
  54399.634    0.2751E-23
  54399.702   -0.1497E-22
  54399.771   -0.8003E-23
  54399.840   -0.1028E-23
  54399.908   -0.1111E-23
  54399.977    0.1650E-22
  54400.045    0.3417E-22
  54400.114    0.1633E-22
  54400.183   -0.1906E-22
  54400.251   -0.5071E-22
  54400.320   -0.6823E-22
  54400.388   -0.2985E-22
  54400.457    0.1764E-23
  54400.526    0.2293E-22
  54400.594    0.4776E-22
  54400.663    0.5125E-22
  54400.732    0.4403E-22
  54400.800    0.5823E-22
  54400.869    0.9044E-22
  54400.937    0.8316E-22
  54401.006    0.7589E-22
  54401.075    0.5432E-22
  54401.143    0.1864E-22
  54401.212   -0.3084E-22
  54401.280   -0.5893E-22
  54401.349   -0.6947E-22
  54401.418   -0.8693E-22
  54401.486   -0.8354E-22
  54401.555   -0.1044E-21
  54401.623   -0.1045E-21
  54401.692   -0.8379E-22
  54401.761   -0.8040E-22
  54401.829   -0.8048E-22
  54401.898   -0.6664E-22
  54401.966   -0.5975E-22
  54402.035   -0.4235E-22
  54402.104   -0.2840E-22
  54402.172   -0.3901E-22
  54402.241   -0.3558E-22
  54402.309    0.1724E-22
  54402.378    0.3137E-22
  54402.447    0.2063E-22
  54402.515    0.2054E-22
  54402.584    0.3112E-22
  54402.652    0.7751E-22
  54402.721    0.1244E-21
  54402.790    0.1717E-21
  54402.858    0.1826E-21
  54402.927    0.1605E-21
  54402.996    0.1132E-21
  54403.064    0.1058E-21
  54403.133    0.1239E-21
  54403.201    0.1456E-21
  54403.270    0.1638E-21
  54403.339    0.1600E-21
  54403.407    0.1417E-21
  54403.476    0.1307E-21
  54403.544    0.1343E-21
  54403.613    0.1342E-21
  54403.682    0.1560E-21
  54403.750    0.1962E-21
  54403.819    0.2480E-21
  54403.887    0.2740E-21
  54403.956    0.2964E-21
  54404.025    0.3001E-21
  54404.093    0.2925E-21
  54404.162    0.3037E-21
  54404.231    0.3643E-21
  54404.299    0.4800E-21
  54404.368    0.5786E-21
  54404.436    0.6793E-21
  54404.505    0.7739E-21
  54404.574    0.8281E-21
  54404.642    0.8575E-21
  54404.711    0.8786E-21
  54404.779    0.8998E-21
  54404.848    0.9168E-21
  54404.917    0.9511E-21
  54404.985    0.9381E-21
  54405.054    0.8995E-21
  54405.123    0.8909E-21
  54405.191    0.8738E-21
  54405.260    0.8652E-21
  54405.328    0.8230E-21
  54405.397    0.7645E-21
  54405.466    0.7313E-21
  54405.534    0.7107E-21
  54405.603    0.6779E-21
  54405.672    0.6252E-21
  54405.740    0.5890E-21
  54405.809    0.5610E-21
  54405.877    0.5253E-21
  54405.946    0.5016E-21
  54406.015    0.4624E-21
  54406.083    0.4196E-21
  54406.152    0.3696E-21
  54406.220    0.3619E-21
  54406.289    0.3542E-21
  54406.358    0.3389E-21
  54406.426    0.3426E-21
  54406.495    0.3312E-21
  54406.564    0.3159E-21
  54406.632    0.3272E-21
  54406.701    0.3158E-21
  54406.769    0.2631E-21
  54406.838    0.1815E-21
  54406.907    0.1085E-21
  54406.975    0.8311E-22
  54407.044    0.6865E-22
  54407.113    0.6139E-22
  54407.181    0.6848E-22
  54407.250    0.7199E-22
  54407.318    0.5756E-22
  54407.387    0.5748E-22
  54407.456    0.7174E-22
  54407.524    0.7525E-22
  54407.593    0.5365E-22
  54407.662    0.2503E-22
  54407.730    0.4634E-22
  54407.799    0.4983E-22
  54407.867    0.4975E-22
  54407.936    0.9277E-22
  54408.005    0.1108E-21
  54408.073    0.1179E-21
  54408.142    0.1034E-21
  54408.211    0.6725E-22
  54408.279    0.4925E-22
  54408.348    0.4917E-22
  54408.416    0.3480E-22
  54408.485    0.3829E-22
  54408.554    0.4535E-22
  54408.622    0.3099E-22
  54408.691    0.4161E-22
  54408.760    0.7018E-22
  54408.828    0.9892E-22
  54408.897    0.1133E-21
  54408.965    0.1132E-21
  54409.034    0.9506E-22
  54409.103    0.8055E-22
  54409.171    0.7328E-22
  54409.240    0.7679E-22
  54409.309    0.6234E-22
  54409.377    0.7663E-22
  54409.446    0.6935E-22
  54409.515    0.5134E-22
  54409.583    0.6201E-22
  54409.652    0.7630E-22
  54409.720    0.9423E-22
  54409.789    0.1014E-21
  54409.858    0.9768E-22
  54409.926    0.7956E-22
  54409.995    0.5435E-22
  54410.064    0.4353E-22
  54410.132    0.1850E-22
  54410.201    0.1487E-22
  54410.269    0.2901E-22
  54410.338    0.5394E-22
  54410.407    0.8980E-22
  54410.475    0.1078E-21
  54410.544    0.1150E-21
  54410.613    0.1440E-21
  54410.681    0.1622E-21
  54410.750    0.1658E-21
  54410.819    0.1767E-21
  54410.887    0.1987E-21
  54410.956    0.2208E-21
  54411.024    0.2170E-21
  54411.093    0.2095E-21
  54411.162    0.1836E-21
  54411.230    0.1835E-21
  54411.299    0.1908E-21
  54411.368    0.1834E-21
  54411.436    0.1980E-21
  54411.505    0.2425E-21
  54411.574    0.2760E-21
  54411.642    0.2947E-21
  54411.711    0.3060E-21
  54411.779    0.3134E-21
  54411.848    0.3096E-21
  54411.917    0.3095E-21
  54411.985    0.3321E-21
  54412.054    0.3893E-21
  54412.123    0.4356E-21
  54412.191    0.4823E-21
  54412.260    0.5176E-21
  54412.329    0.5611E-21
  54412.397    0.6010E-21
  54412.466    0.6130E-21
  54412.535    0.6210E-21
  54412.603    0.6411E-21
  54412.672    0.6735E-21
  54412.740    0.6939E-21
  54412.809    0.7764E-21
  54412.878    0.8476E-21
  54412.946    0.9028E-21
  54413.015    0.9716E-21
  54413.084    0.1086E-20
  54413.152    0.1216E-20
  54413.221    0.1364E-20
  54413.290    0.1547E-20
  54413.358    0.1772E-20
  54413.427    0.2041E-20
  54413.496    0.2343E-20
  54413.564    0.2721E-20
  54413.633    0.3145E-20
  54413.701    0.3617E-20
  54413.770    0.3893E-20
  54413.839    0.4433E-20
  54413.907    0.4797E-20
  54413.976    0.5054E-20
  54414.045    0.5190E-20
  54414.113    0.5260E-20
  54414.182    0.5249E-20
  54414.251    0.5154E-20
  54414.319    0.5022E-20
  54414.388    0.4886E-20
  54414.457    0.4692E-20
  54414.525    0.4423E-20
  54414.594    0.4112E-20
  54414.663    0.3897E-20
  54414.731    0.3730E-20
  54414.800    0.3539E-20
  54414.868    0.3205E-20
  54414.937    0.2982E-20
  54415.006    0.2750E-20
  54415.074    0.2547E-20
  54415.143    0.2335E-20
  54415.212    0.2131E-20
  54415.280    0.1894E-20
  54415.349    0.1628E-20
  54415.418    0.1433E-20
  54415.486    0.1273E-20
  54415.555    0.1127E-20
  54415.624    0.1016E-20
  54415.692    0.9166E-21
  54415.761    0.8104E-21
  54415.830    0.7148E-21
  54415.898    0.6412E-21
  54415.967    0.6209E-21
  54416.036    0.6168E-21
  54416.104    0.5885E-21
  54416.173    0.5406E-21
  54416.241    0.4970E-21
  54416.310    0.4578E-21
  54416.379    0.4111E-21
  54416.447    0.3764E-21
  54416.516    0.3878E-21
  54416.585    0.3954E-21
  54416.653    0.3954E-21
  54416.722    0.3761E-21
  54416.791    0.3188E-21
  54416.859    0.2622E-21
  54416.928    0.2099E-21
  54416.997    0.1914E-21
  54417.065    0.1950E-21
  54417.134    0.1875E-21
  54417.203    0.1580E-21
  54417.271    0.1726E-21
  54417.340    0.1799E-21
  54417.409    0.1835E-21
  54417.477    0.1834E-21
  54417.546    0.1760E-21
  54417.615    0.1612E-21
  54417.683    0.1538E-21
  54417.752    0.1500E-21
  54417.821    0.1244E-21
  54417.889    0.8080E-22
  54417.958    0.6991E-22
  54418.027    0.9871E-22
  54418.095    0.1168E-21
  54418.164    0.1058E-21
  54418.233    0.8039E-22
  54418.301    0.9114E-22
  54418.370    0.1274E-21
  54418.439    0.1091E-21
  54418.507    0.8367E-22
  54418.576    0.5478E-22
  54418.644    0.4037E-22
  54418.713    0.5103E-22
  54418.782    0.2948E-22
  54418.850    0.4465E-23
  54418.919    0.1149E-22
  54418.988    0.4353E-22
  54419.056    0.3629E-22
  54419.125    0.4337E-22
  54419.194    0.6842E-22
  54419.262    0.7554E-22
  54419.331    0.6465E-22
  54419.400    0.4662E-22
  54419.468    0.6809E-22
  54419.537    0.6441E-22
  54419.606    0.3921E-22
  54419.674    0.1770E-22
  54419.743    0.3189E-22
  54419.812    0.7488E-22
  54419.880    0.6040E-22
  54419.949    0.1025E-22
  54420.018    0.3060E-23
  54420.086    0.6530E-23
  54420.155   -0.6566E-24
  54420.224    0.1348E-22
  54420.292    0.2729E-23
  54420.361   -0.9046E-24
  54420.430   -0.1516E-22
  54420.498   -0.4699E-22
  54420.567   -0.3299E-22
  54420.636    0.1654E-22
  54420.704    0.5940E-22
  54420.773    0.6652E-22
  54420.842    0.4488E-22
  54420.910    0.3049E-22
  54420.979    0.1970E-22
  54421.048    0.4105E-22
  54421.116    0.8775E-22
  54421.185    0.9129E-22
  54421.254    0.1021E-21
  54421.322    0.1056E-21
  54421.391    0.3706E-22
  54421.460    0.1199E-22
  54421.528    0.1240E-23
  54421.597    0.1895E-22
  54421.666    0.4031E-22
  54421.734    0.2235E-22
  54421.803    0.4463E-23
  54421.872    0.8268E-24
  54421.940    0.4297E-23
  54422.009    0.7771E-23
  54422.078    0.2194E-22
  54422.146    0.3257E-22
  54422.215    0.5759E-22
  54422.284    0.6830E-22
  54422.353    0.4665E-22
  54422.421    0.1796E-22
  54422.490   -0.1056E-22
  54422.559   -0.1773E-22
  54422.627   -0.8313E-25
  54422.696   -0.1659E-24
  54422.765    0.6861E-23
  54422.833    0.4248E-22
  54422.902    0.7837E-22
  54422.971    0.9276E-22
  54423.039    0.9992E-22
  54423.108    0.8897E-22
  54423.177    0.7443E-22
  54423.245    0.2767E-22
  54423.314   -0.1864E-22
  54423.383   -0.2933E-22
  54423.451   -0.1880E-22
  54423.520    0.2020E-22
  54423.589    0.6673E-22
  54423.657    0.1173E-21
  54423.726    0.1538E-21
  54423.795    0.1427E-21
  54423.863    0.1207E-21
  54423.932    0.1097E-21
  54424.001    0.9876E-22
  54424.069    0.9143E-22
  54424.138    0.9497E-22
  54424.207    0.9127E-22
  54424.275    0.9118E-22
  54424.344    0.9110E-22
  54424.413    0.8017E-22
  54424.481    0.8370E-22
  54424.550    0.1090E-21
  54424.619    0.1235E-21
  54424.688    0.1343E-21
  54424.756    0.1636E-21
  54424.825    0.1746E-21
  54424.894    0.1671E-21
  54424.962    0.1450E-21
  54425.031    0.1048E-21
  54425.100    0.6491E-22
  54425.168    0.4326E-22
  54425.237    0.5394E-22
  54425.306    0.6106E-22
  54425.374    0.8986E-22
  54425.443    0.1152E-21
  54425.512    0.9332E-22
  54425.580    0.4994E-22
  54425.649    0.1764E-22
  54425.718    0.3302E-23
  54425.786    0.2819E-22
  54425.855    0.5680E-22
  54425.924    0.4952E-22
  54425.993    0.4226E-22
  54426.061    0.6015E-22
  54426.130    0.7810E-22
  54426.199    0.8525E-22
  54426.267    0.1142E-21
  54426.336    0.1178E-21
  54426.405    0.1104E-21
  54426.473    0.9216E-22
  54426.542    0.7399E-22
  54426.611    0.6308E-22
  54426.679    0.5580E-22
  54426.748    0.2703E-22
  54426.817    0.9097E-23
  54426.885    0.9014E-23
  54426.954   -0.1594E-22
  54427.023   -0.4782E-22
  54427.091   -0.3026E-22
  54427.160    0.8683E-23
  54427.229    0.3002E-22
  54427.298    0.5506E-22
  54427.366    0.8022E-22
  54427.435    0.7291E-22
  54427.504    0.5481E-22
  54427.572    0.2961E-22
  54427.641    0.2237E-22
  54427.710    0.8020E-23
  54427.778    0.7938E-23
  54427.847    0.2570E-22
  54427.916    0.2562E-22
  54427.984    0.4345E-22
  54428.053    0.6495E-22
  54428.122    0.8655E-22
  54428.191    0.8646E-22
  54428.259    0.9000E-22
  54428.328    0.7545E-22
  54428.397    0.7175E-22
  54428.465    0.1152E-21
  54428.534    0.1334E-21
  54428.603    0.1296E-21
  54428.671    0.1259E-21
  54428.740    0.1258E-21
  54428.809    0.1039E-21
  54428.877    0.7840E-22
  54428.946    0.9280E-22
  54429.015    0.1145E-21
  54429.084    0.1510E-21
  54429.152    0.1804E-21
  54429.221    0.1988E-21
  54429.290    0.1987E-21
  54429.358    0.2210E-21
  54429.427    0.2395E-21
  54429.496    0.2245E-21
  54429.564    0.1910E-21
  54429.633    0.1614E-21
  54429.702    0.1613E-21
  54429.771    0.1797E-21
  54429.839    0.1722E-21
  54429.908    0.1647E-21
  54429.977    0.1463E-21
  54430.045    0.1352E-21
  54430.114    0.1205E-21
  54430.183    0.9857E-22
  54430.251    0.9486E-22
  54430.320    0.9114E-22
  54430.389    0.9469E-22
  54430.458    0.1201E-21
  54430.526    0.1091E-21
  54430.595    0.9807E-22
  54430.664    0.9799E-22
  54430.732    0.9428E-22
  54430.801    0.9056E-22
  54430.870    0.1087E-21
  54430.938    0.9403E-22
  54431.007    0.6499E-22
  54431.076    0.3255E-22
  54431.145    0.1815E-22
  54431.213    0.2522E-22
  54431.282    0.3230E-22
  54431.351    0.3939E-22
  54431.419    0.4649E-22
  54431.488    0.6802E-22
  54431.557    0.1005E-21
  54431.625    0.1187E-21
  54431.694    0.1515E-21
  54431.763    0.1810E-21
  54431.832    0.1624E-21
  54431.900    0.1074E-21
  54431.969    0.6744E-22
  54432.038    0.1707E-22
  54432.106    0.2716E-23
  54432.175   -0.9281E-24
  54432.244   -0.1878E-22
  54432.312   -0.1531E-22
  54432.381    0.9515E-23
  54432.450    0.3447E-22
  54432.519    0.4876E-22
  54432.587    0.5227E-22
  54432.656    0.5219E-22
  54432.725    0.8099E-22
  54432.793    0.7729E-22
  54432.862    0.6275E-22
  54432.931    0.4107E-22
  54433.000    0.4458E-22
  54433.068    0.5529E-22
  54433.137    0.5521E-22
  54433.206    0.3356E-22
  54433.274    0.8437E-23
  54433.343    0.1907E-22
  54433.412    0.4768E-22
  54433.481    0.7284E-22
  54433.549    0.8725E-22
  54433.618    0.8354E-22
  54433.687    0.3657E-22
  54433.755   -0.9951E-23
  54433.824   -0.1003E-22
  54433.893    0.5595E-24
  54433.961    0.4041E-23
  54434.030   -0.3510E-22
  54434.099   -0.8094E-22
  54434.168   -0.7050E-22
  54434.236   -0.3181E-22
  54434.305    0.2865E-22
  54434.374    0.8988E-22
  54434.442    0.1043E-21
  54434.511    0.1262E-21
  54434.580    0.1188E-21
  54434.649    0.7867E-22
  54434.717    0.6774E-22
  54434.786    0.6765E-22
  54434.855    0.6396E-22
  54434.923    0.6026E-22
  54434.992    0.3858E-22
  54435.061    0.2773E-22
  54435.130    0.6196E-23
  54435.198   -0.2943E-22
  54435.267   -0.5777E-22
  54435.336   -0.9293E-22
  54435.404   -0.1000E-21
  54435.473   -0.7208E-22
  54435.542   -0.5810E-22
  54435.611   -0.3347E-22
  54435.679    0.9102E-23
  54435.748    0.4486E-22
  54435.817    0.8451E-22
  54435.885    0.1062E-21
  54435.954    0.1317E-21
  54436.023    0.1610E-21
  54436.092    0.1831E-21
  54436.160    0.1719E-21
  54436.229    0.1277E-21
  54436.298    0.6583E-22
  54436.366    0.4411E-22
  54436.435    0.5123E-22
  54436.504    0.5475E-22
  54436.573    0.7635E-22
  54436.641    0.4378E-22
  54436.710    0.7857E-23
  54436.779   -0.1716E-22
  54436.848   -0.2788E-22
  54436.916   -0.1732E-22
  54436.985    0.7524E-23
  54437.054    0.1459E-22
  54437.122    0.3242E-22
  54437.191    0.2875E-22
  54437.260    0.3225E-22
  54437.329    0.4655E-22
  54437.397    0.5367E-22
  54437.466    0.6803E-22
  54437.535    0.6795E-22
  54437.603    0.2825E-22
  54437.672   -0.2179E-22
  54437.741   -0.1832E-22
  54437.810    0.6528E-23
  54437.878    0.2075E-22
  54437.947    0.6383E-22
  54438.016    0.8548E-22
  54438.085    0.6367E-22
  54438.153    0.4915E-22
  54438.222    0.4187E-22
  54438.291    0.2742E-22
  54438.359    0.1659E-22
  54438.428    0.2008E-22
  54438.497    0.2000E-22
  54438.566    0.1992E-22
  54438.634    0.4137E-22
  54438.703    0.7740E-22
  54438.772    0.1173E-21
  54438.841    0.1650E-21
  54438.909    0.1946E-21
  54438.978    0.1833E-21
  54439.047    0.1317E-21
  54439.115    0.5520E-22
  54439.184   -0.1295E-22
  54439.253   -0.6962E-22
  54439.322   -0.1152E-21
  54439.390   -0.9783E-22
  54439.459   -0.5226E-22
  54439.528   -0.1337E-22
  54439.597    0.2943E-22
  54439.665    0.6899E-22
  54439.734    0.8704E-22
  54439.803    0.7969E-22
  54439.871    0.6874E-22
  54439.940    0.1159E-21
  54440.009    0.1489E-21
  54440.078    0.1525E-21
  54440.146    0.1487E-21
  54440.215    0.1597E-21
  54440.284    0.1375E-21
  54440.353    0.1228E-21
  54440.421    0.1190E-21
  54440.490    0.1446E-21
  54440.559    0.1814E-21
  54440.627    0.1925E-21
  54440.696    0.2073E-21
  54440.765    0.2296E-21
  54440.834    0.1959E-21
  54440.902    0.1221E-21
  54440.971    0.6379E-22
  54441.040    0.4927E-22
  54441.109    0.6363E-22
  54441.177    0.9256E-22
  54441.246    0.1180E-21
  54441.315    0.1326E-21
  54441.384    0.1362E-21
  54441.452    0.1214E-21
  54441.521    0.9215E-22
  54441.590    0.7391E-22
  54441.658    0.4852E-22
  54441.727    0.4844E-22
  54441.796    0.7003E-22
  54441.865    0.9537E-22
  54441.933    0.1135E-21
  54442.002    0.9520E-22
  54442.071    0.8784E-22
  54442.140    0.1096E-21
  54442.208    0.1132E-21
  54442.277    0.9851E-22
  54442.346    0.7662E-22
  54442.415    0.3320E-22
  54442.483    0.8777E-24
  54442.552   -0.2413E-22
  54442.621   -0.4195E-22
  54442.690    0.7775E-23
  54442.758    0.6163E-22
  54442.827    0.8330E-22
  54442.896    0.1087E-21
  54442.965    0.1269E-21
  54443.033    0.9396E-22
  54443.102    0.8660E-22
  54443.171    0.9379E-22
  54443.239    0.5743E-22
  54443.308    0.3572E-22
  54443.377    0.4644E-22
  54443.446    0.7529E-22
  54443.514    0.9337E-22
  54443.583    0.9329E-22
  54443.652    0.1078E-21
  54443.721    0.9312E-22
  54443.789    0.4234E-22
  54443.858    0.9938E-23
  54443.927    0.6278E-23
  54443.996    0.4569E-22
  54444.064    0.7091E-22
  54444.133    0.8172E-22
  54444.202    0.7800E-22
  54444.271    0.4897E-22
  54444.339    0.3088E-22
  54444.408    0.2720E-22
  54444.477    0.3430E-22
  54444.546    0.3063E-22
  54444.614    0.2695E-22
  54444.683    0.3406E-22
  54444.752    0.1960E-22
  54444.821    0.2311E-22
  54444.889    0.3381E-22
  54444.958    0.6983E-22
  54445.027    0.1354E-21
  54445.096    0.1945E-21
  54445.164    0.2543E-21
  54445.233    0.2882E-21
  54445.302    0.3224E-21
  54445.371    0.3492E-21
  54445.439    0.3529E-21
  54445.508    0.3490E-21
  54445.577    0.3643E-21
  54445.646    0.3719E-21
  54445.714    0.4184E-21
  54445.783    0.4653E-21
  54445.852    0.4378E-21
  54445.921    0.3793E-21
  54445.989    0.3523E-21
  54446.058    0.3139E-21
  54446.127    0.2986E-21
  54446.196    0.2947E-21
  54446.264    0.2984E-21
  54446.333    0.2983E-21
  54446.402    0.2604E-21
  54446.471    0.2040E-21
  54446.539    0.1336E-21
  54446.608    0.6783E-22
  54446.677    0.3524E-22
  54446.746    0.3156E-22
  54446.814    0.4950E-22
  54446.883    0.8930E-22
  54446.952    0.1294E-21
  54447.021    0.1404E-21
  54447.089    0.1477E-21
  54447.158    0.1145E-21
  54447.227    0.4900E-22
  54447.296   -0.4946E-23
  54447.364   -0.4769E-22
  54447.433   -0.5837E-22
  54447.502   -0.5846E-22
  54447.571   -0.2665E-22
  54447.639    0.5362E-23
  54447.708    0.2680E-22
  54447.777    0.2312E-22
  54447.846    0.2663E-22
  54447.914    0.4095E-22
  54447.983    0.3006E-22
  54448.052    0.4862E-23
  54448.121   -0.1664E-22
  54448.189   -0.1673E-22
  54448.258   -0.1325E-22
  54448.327    0.4529E-23
  54448.396    0.5119E-22
  54448.464    0.6559E-22
  54448.533    0.9823E-22
  54448.602    0.1348E-21
  54448.671    0.1790E-21
  54448.739    0.1938E-21
  54448.808    0.1826E-21
  54448.877    0.1455E-21
  54448.946    0.1160E-21
  54449.015    0.1013E-21
  54449.083    0.1012E-21
  54449.152    0.1488E-21
  54449.221    0.1970E-21
  54449.290    0.1969E-21
  54449.358    0.1782E-21
  54449.427    0.1707E-21
  54449.496    0.1558E-21
  54449.565    0.1520E-21
  54449.633    0.1630E-21
  54449.702    0.1852E-21
  54449.771    0.2075E-21
  54449.840    0.2074E-21
  54449.908    0.2036E-21
  54449.977    0.1849E-21
  54450.046    0.1885E-21
  54450.115    0.1996E-21
  54450.183    0.2182E-21
  54450.252    0.2069E-21
  54450.321    0.1770E-21
  54450.390    0.1547E-21
  54450.459    0.1732E-21
  54450.527    0.2140E-21
  54450.596    0.2364E-21
  54450.665    0.2552E-21
  54450.734    0.2325E-21
  54450.802    0.1876E-21
  54450.871    0.1284E-21
  54450.940    0.1283E-21
  54451.009    0.1614E-21
  54451.077    0.1835E-21
  54451.146    0.1984E-21
  54451.215    0.2244E-21
  54451.284    0.2431E-21
  54451.352    0.2581E-21
  54451.421    0.2694E-21
  54451.490    0.2769E-21
  54451.559    0.2958E-21
  54451.628    0.3109E-21
  54451.696    0.3223E-21
  54451.765    0.3491E-21
  54451.834    0.3529E-21
  54451.903    0.3451E-21
  54451.971    0.3220E-21
  54452.040    0.3257E-21
  54452.109    0.3448E-21
  54452.178    0.3718E-21
  54452.246    0.4066E-21
  54452.315    0.4456E-21
  54452.384    0.4534E-21
  54452.453    0.4651E-21
  54452.522    0.4888E-21
  54452.590    0.5245E-21
  54452.659    0.5605E-21
  54452.728    0.5846E-21
  54452.797    0.6088E-21
  54452.865    0.6128E-21
  54452.934    0.6741E-21
  54453.003    0.7865E-21
  54453.072    0.9103E-21
  54453.141    0.1046E-20
  54453.209    0.1163E-20
  54453.278    0.1321E-20
  54453.347    0.1523E-20
  54453.416    0.1739E-20
  54453.484    0.1981E-20
  54453.553    0.2271E-20
  54453.622    0.2635E-20
  54453.691    0.3049E-20
  54453.759    0.3487E-20
  54453.828    0.3668E-20
  54453.897    0.4167E-20
  54453.966    0.4572E-20
  54454.035    0.4905E-20
  54454.103    0.5132E-20
  54454.172    0.5209E-20
  54454.241    0.5186E-20
  54454.310    0.5071E-20
  54454.378    0.4929E-20
  54454.447    0.4838E-20
  54454.516    0.4733E-20
  54454.585    0.4586E-20
  54454.654    0.4448E-20
  54454.722    0.4309E-20
  54454.791    0.4185E-20
  54454.860    0.4049E-20
  54454.929    0.3915E-20
  54454.997    0.3755E-20
  54455.066    0.3534E-20
  54455.135    0.3163E-20
  54455.204    0.2986E-20
  54455.273    0.2803E-20
  54455.341    0.2651E-20
  54455.410    0.2468E-20
  54455.479    0.2269E-20
  54455.548    0.2088E-20
  54455.616    0.1904E-20
  54455.685    0.1757E-20
  54455.754    0.1614E-20
  54455.823    0.1490E-20
  54455.892    0.1370E-20
  54455.960    0.1275E-20
  54456.029    0.1178E-20
  54456.098    0.1083E-20
  54456.167    0.1007E-20
  54456.236    0.9455E-21
  54456.304    0.9020E-21
  54456.373    0.8718E-21
  54456.442    0.8247E-21
  54456.511    0.7696E-21
  54456.579    0.7318E-21
  54456.648    0.6985E-21
  54456.717    0.6572E-21
  54456.786    0.6243E-21
  54456.855    0.5958E-21
  54456.923    0.5876E-21
  54456.992    0.5875E-21
  54457.061    0.5955E-21
  54457.130    0.5711E-21
  54457.199    0.5469E-21
  54457.267    0.5188E-21
  54457.336    0.5307E-21
  54457.405    0.5426E-21
  54457.474    0.5506E-21
  54457.542    0.5545E-21
  54457.611    0.5424E-21
  54457.680    0.5544E-21
  54457.749    0.5422E-21
  54457.818    0.5141E-21
  54457.886    0.5180E-21
  54457.955    0.5540E-21
  54458.024    0.5499E-21
  54458.093    0.5539E-21
  54458.162    0.5618E-21
  54458.230    0.5537E-21
  54458.299    0.5456E-21
  54458.368    0.5535E-21
  54458.437    0.5374E-21
  54458.506    0.5213E-21
  54458.574    0.5452E-21
  54458.643    0.5814E-21
  54458.712    0.5935E-21
  54458.781    0.5934E-21
  54458.849    0.6259E-21
  54458.918    0.6751E-21
  54458.987    0.7164E-21
  54459.056    0.7497E-21
  54459.125    0.8002E-21
  54459.193    0.8469E-21
  54459.262    0.9288E-21
  54459.331    0.1065E-20
  54459.400    0.1188E-20
  54459.469    0.1323E-20
  54459.537    0.1442E-20
  54459.606    0.1525E-20
  54459.675    0.1594E-20
  54459.744    0.1635E-20
  54459.813    0.1655E-20
  54459.881    0.1660E-20
  54459.950    0.1670E-20
  54460.019    0.1690E-20
  54460.088    0.1741E-20
  54460.157    0.1819E-20
  54460.225    0.1893E-20
  54460.294    0.2006E-20
  54460.363    0.2105E-20
  54460.432    0.2206E-20
  54460.501    0.2297E-20
  54460.569    0.2379E-20
  54460.638    0.2492E-20
  54460.707    0.2689E-20
  54460.776    0.2933E-20
  54460.845    0.3254E-20
  54460.913    0.3590E-20
  54460.982    0.3615E-20
  54461.051    0.4064E-20
  54461.120    0.4593E-20
  54461.189    0.5210E-20
  54461.257    0.5878E-20
  54461.326    0.6716E-20
  54461.395    0.7643E-20
  54461.464    0.8896E-20
  54461.533    0.1039E-19
  54461.601    0.1198E-19
  54461.670    0.1376E-19
  54461.739    0.1570E-19
  54461.808    0.1762E-19
  54461.877    0.1940E-19
  54461.945    0.2184E-19
  54462.014    0.2281E-19
  54462.083    0.2321E-19
  54462.152    0.2323E-19
  54462.221    0.2307E-19
  54462.289    0.2236E-19
  54462.358    0.2128E-19
  54462.427    0.1977E-19
  54462.496    0.1873E-19
  54462.565    0.1761E-19
  54462.633    0.1654E-19
  54462.702    0.1544E-19
  54462.771    0.1422E-19
  54462.840    0.1293E-19
  54462.909    0.1060E-19
  54462.977    0.9535E-20
  54463.046    0.8608E-20
  54463.115    0.7259E-20
  54463.184    0.6560E-20
  54463.253    0.5954E-20
  54463.321    0.5372E-20
  54463.390    0.4851E-20
  54463.459    0.4390E-20
  54463.528    0.3968E-20
  54463.597    0.3614E-20
  54463.665    0.2996E-20
  54463.734    0.2774E-20
  54463.803    0.2573E-20
  54463.872    0.2363E-20
  54463.941    0.2190E-20
  54464.009    0.2028E-20
  54464.078    0.1862E-20
  54464.147    0.1721E-20
  54464.216    0.1599E-20
  54464.285    0.1470E-20
  54464.354    0.1388E-20
  54464.422    0.1326E-20
  54464.491    0.1265E-20
  54464.560    0.1232E-20
  54464.629    0.1204E-20
  54464.698    0.1177E-20
  54464.766    0.1158E-20
  54464.835    0.1177E-20
  54464.904    0.1154E-20
  54464.973    0.1081E-20
  54465.042    0.1001E-20
  54465.110    0.9348E-21
  54465.179    0.8568E-21
  54465.248    0.7970E-21
  54465.317    0.7379E-21
  54465.386    0.6837E-21
  54465.455    0.6383E-21
  54465.523    0.6178E-21
  54465.592    0.6177E-21
  54465.661    0.5770E-21
  54465.730    0.5285E-21
  54465.799    0.5084E-21
  54465.867    0.5203E-21
  54465.936    0.5766E-21
  54466.005    0.6009E-21
  54466.074    0.5967E-21
  54466.143    0.5562E-21
  54466.211    0.5159E-21
  54466.280    0.4641E-21
  54466.349    0.3973E-21
  54466.418    0.3894E-21
  54466.487    0.4088E-21
  54466.556    0.4323E-21
  54466.624    0.4558E-21
  54466.693    0.4795E-21
  54466.762    0.5233E-21
  54466.831    0.5152E-21
  54466.900    0.4713E-21
  54466.968    0.4475E-21
  54467.037    0.4317E-21
  54467.106    0.4316E-21
  54467.175    0.4315E-21
  54467.244    0.4432E-21
  54467.313    0.4510E-21
  54467.381    0.4352E-21
  54467.450    0.4037E-21
  54467.519    0.3803E-21
  54467.588    0.3763E-21
  54467.657    0.3918E-21
  54467.725    0.4308E-21
  54467.794    0.4386E-21
  54467.863    0.4111E-21
  54467.932    0.4071E-21
  54468.001    0.4031E-21
  54468.070    0.3835E-21
  54468.138    0.3834E-21
  54468.207    0.3989E-21
  54468.276    0.3988E-21
  54468.345    0.4222E-21
  54468.414    0.4143E-21
  54468.482    0.4103E-21
  54468.551    0.4495E-21
  54468.620    0.4771E-21
  54468.689    0.5249E-21
  54468.758    0.5611E-21
  54468.827    0.5448E-21
  54468.895    0.5609E-21
  54468.964    0.6136E-21
  54469.033    0.6299E-21
  54469.102    0.5971E-21
  54469.171    0.5324E-21
  54469.240    0.4724E-21
  54469.308    0.4211E-21
  54469.377    0.3975E-21
  54469.446    0.4052E-21
  54469.515    0.3895E-21
  54469.584    0.3584E-21
  54469.653    0.3544E-21
  54469.721    0.3737E-21
  54469.790    0.3659E-21
  54469.859    0.3619E-21
  54469.928    0.3579E-21
  54469.997    0.3347E-21
  54470.065    0.3077E-21
  54470.134    0.2961E-21
  54470.203    0.2922E-21
  54470.272    0.3036E-21
  54470.341    0.3074E-21
  54470.410    0.3073E-21
  54470.478    0.3149E-21
  54470.547    0.2956E-21
  54470.616    0.2574E-21
  54470.685    0.2083E-21
  54470.754    0.1932E-21
  54470.823    0.2006E-21
  54470.891    0.1781E-21
  54470.960    0.1668E-21
  54471.029    0.1482E-21
  54471.098    0.1296E-21
  54471.167    0.1629E-21
  54471.236    0.2039E-21
  54471.304    0.2566E-21
  54471.373    0.2870E-21
  54471.442    0.3060E-21
  54471.511    0.3367E-21
  54471.580    0.3366E-21
  54471.649    0.3327E-21
  54471.717    0.3480E-21
  54471.786    0.3634E-21
  54471.855    0.3479E-21
  54471.924    0.3633E-21
  54471.993    0.3554E-21
  54472.062    0.3437E-21
  54472.130    0.3591E-21
  54472.199    0.3902E-21
  54472.268    0.4411E-21
  54472.337    0.5125E-21
  54472.406    0.5566E-21
  54472.475    0.6134E-21
  54472.543    0.6792E-21
  54472.612    0.7501E-21
  54472.681    0.7965E-21
  54472.750    0.8219E-21
  54472.819    0.8561E-21
  54472.888    0.8517E-21
  54472.956    0.8431E-21
  54473.025    0.8301E-21
  54473.094    0.7875E-21
  54473.163    0.7284E-21
  54473.232    0.6783E-21
  54473.301    0.6247E-21
  54473.370    0.5879E-21
  54473.438    0.5715E-21
  54473.507    0.5311E-21
  54473.576    0.4711E-21
  54473.645    0.4236E-21
  54473.714    0.4118E-21
  54473.783    0.3843E-21
  54473.851    0.3416E-21
  54473.920    0.2877E-21
  54473.989    0.2231E-21
  54474.058    0.2117E-21
  54474.127    0.1667E-21
  54474.196    0.1369E-21
  54474.264    0.1442E-21
  54474.333    0.1479E-21
  54474.402    0.1776E-21
  54474.471    0.2037E-21
  54474.540    0.1811E-21
  54474.609    0.1661E-21
  54474.677    0.1586E-21
  54474.746    0.1548E-21
  54474.815    0.1621E-21
  54474.884    0.1472E-21
  54474.953    0.1212E-21
  54475.022    0.9168E-22
  54475.091    0.4777E-22
  54475.159    0.4042E-22
  54475.228    0.4761E-22
  54475.297    0.6938E-22
  54475.366    0.9493E-22
  54475.435    0.1726E-21
  54475.504    0.2364E-21
  54475.572    0.2400E-21
  54475.641    0.2362E-21
  54475.710    0.2361E-21
  54475.779    0.2021E-21
  54475.848    0.1572E-21
  54475.917    0.1274E-21
  54475.986    0.9785E-22
  54476.054    0.6481E-22
  54476.123    0.5743E-22
  54476.192    0.7560E-22
  54476.261    0.9017E-22
  54476.330    0.1195E-21
  54476.399    0.1121E-21
  54476.467    0.9359E-22
  54476.536    0.9351E-22
  54476.605    0.1118E-21
  54476.674    0.1228E-21
  54476.743    0.1375E-21
  54476.812    0.1560E-21
  54476.881    0.1522E-21
  54476.949    0.1188E-21
  54477.018    0.9292E-22
  54477.087    0.7817E-22
  54477.156    0.9642E-22
  54477.225    0.9634E-22
  54477.294    0.1073E-21
  54477.363    0.1368E-21
  54477.431    0.1367E-21
  54477.500    0.1292E-21
  54477.569    0.1254E-21
  54477.638    0.8849E-22
  54477.707    0.6280E-22
  54477.776    0.9935E-22
  54477.845    0.1325E-21
  54477.913    0.1435E-21
  54477.982    0.1323E-21
  54478.051    0.7334E-22
  54478.120    0.6595E-22
  54478.189    0.9517E-22
  54478.258    0.1209E-21
  54478.326    0.1319E-21
  54478.395    0.1503E-21
  54478.464    0.1838E-21
  54478.533    0.1987E-21
  54478.602    0.2024E-21
  54478.671    0.1761E-21
  54478.740    0.1723E-21
  54478.808    0.1872E-21
  54478.877    0.1871E-21
  54478.946    0.1758E-21
  54479.015    0.1757E-21
  54479.084    0.1756E-21
  54479.153    0.1718E-21
  54479.222    0.1792E-21
  54479.290    0.1716E-21
  54479.359    0.1753E-21
  54479.428    0.2127E-21
  54479.497    0.2353E-21
  54479.566    0.2390E-21
  54479.635    0.2579E-21
  54479.704    0.2730E-21
  54479.772    0.2767E-21
  54479.841    0.2805E-21
  54479.910    0.2842E-21
  54479.979    0.2233E-21
  54480.048    0.1782E-21
  54480.117    0.1856E-21
  54480.186    0.2344E-21
  54480.255    0.3106E-21
  54480.323    0.4037E-21
  54480.392    0.4588E-21
  54480.461    0.4946E-21
  54480.530    0.5145E-21
  54480.599    0.5144E-21
  54480.668    0.5224E-21
  54480.737    0.5586E-21
  54480.805    0.5870E-21
  54480.874    0.6114E-21
  54480.943    0.6565E-21
  54481.012    0.6938E-21
  54481.081    0.7062E-21
  54481.150    0.7061E-21
  54481.219    0.6479E-21
  54481.287    0.5945E-21
  54481.356    0.6108E-21
  54481.425    0.6189E-21
  54481.494    0.6106E-21
  54481.563    0.5901E-21
  54481.632    0.5494E-21
  54481.701    0.4771E-21
  54481.770    0.4059E-21
  54481.838    0.3434E-21
  54481.907    0.3240E-21
  54481.976    0.3162E-21
  54482.045    0.2854E-21
  54482.114    0.2701E-21
  54482.183    0.2320E-21
  54482.252    0.1942E-21
  54482.320    0.1904E-21
  54482.389    0.1791E-21
  54482.458    0.1603E-21
  54482.527    0.1789E-21
  54482.596    0.1788E-21
  54482.665    0.1563E-21
  54482.734    0.1451E-21
  54482.803    0.1823E-21
  54482.871    0.2312E-21
  54482.940    0.2386E-21
  54483.009    0.2499E-21
  54483.078    0.2461E-21
  54483.147    0.2422E-21
  54483.216    0.2421E-21
  54483.285    0.2420E-21
  54483.354    0.2306E-21
  54483.422    0.2191E-21
  54483.491    0.2494E-21
  54483.560    0.3066E-21
  54483.629    0.3840E-21
  54483.698    0.4429E-21
  54483.767    0.4946E-21
  54483.836    0.5467E-21
  54483.904    0.5954E-21
  54483.973    0.6570E-21
  54484.042    0.7572E-21
  54484.111    0.8466E-21
  54484.180    0.8854E-21
  54484.249    0.9202E-21
  54484.318    0.9640E-21
  54484.387    0.1008E-20
  54484.455    0.1053E-20
  54484.524    0.1057E-20
  54484.593    0.1004E-20
  54484.662    0.9460E-21
  54484.731    0.8935E-21
  54484.800    0.8544E-21
  54484.869    0.8071E-21
  54484.938    0.7392E-21
  54485.006    0.7056E-21
  54485.075    0.7013E-21
  54485.144    0.6763E-21
  54485.213    0.6266E-21
  54485.282    0.5937E-21
  54485.351    0.5692E-21
  54485.420    0.5126E-21
  54485.489    0.4805E-21
  54485.558    0.4724E-21
  54485.626    0.4248E-21
  54485.695    0.4011E-21
  54485.764    0.3814E-21
  54485.833    0.3502E-21
  54485.902    0.3346E-21
  54485.971    0.3617E-21
  54486.040    0.3655E-21
  54486.109    0.3537E-21
  54486.177    0.3731E-21
  54486.246    0.3769E-21
  54486.315    0.3613E-21
  54486.384    0.3186E-21
  54486.453    0.3031E-21
  54486.522    0.3339E-21
  54486.591    0.3493E-21
  54486.660    0.3221E-21
  54486.728    0.3104E-21
  54486.797    0.2873E-21
  54486.866    0.2452E-21
  54486.935    0.2414E-21
  54487.004    0.2794E-21
  54487.073    0.2946E-21
  54487.142    0.2946E-21
  54487.211    0.2906E-21
  54487.280    0.2791E-21
  54487.348    0.2523E-21
  54487.417    0.2370E-21
  54487.486    0.2369E-21
  54487.555    0.2406E-21
  54487.624    0.2405E-21
  54487.693    0.2404E-21
  54487.762    0.2366E-21
  54487.831    0.2024E-21
  54487.900    0.1873E-21
  54487.968    0.2212E-21
  54488.037    0.2628E-21
  54488.106    0.2742E-21
  54488.175    0.2627E-21
  54488.244    0.2360E-21
  54488.313    0.2019E-21
  54488.382    0.1717E-21
  54488.451    0.1567E-21
  54488.519    0.1492E-21
  54488.588    0.1491E-21
  54488.657    0.1677E-21
  54488.726    0.1901E-21
  54488.795    0.2277E-21
  54488.864    0.2390E-21
  54488.933    0.2124E-21
  54489.002    0.2199E-21
  54489.071    0.2540E-21
  54489.139    0.2653E-21
  54489.208    0.2844E-21
  54489.277    0.3073E-21
  54489.346    0.3381E-21
  54489.415    0.3497E-21
  54489.484    0.3808E-21
  54489.553    0.4200E-21
  54489.622    0.4278E-21
  54489.691    0.4119E-21
  54489.760    0.3961E-21
  54489.828    0.4078E-21
  54489.897    0.3960E-21
  54489.966    0.3880E-21
  54490.035    0.3919E-21
  54490.104    0.3957E-21
  54490.173    0.4350E-21
  54490.242    0.4587E-21
  54490.311    0.4746E-21
  54490.380    0.4865E-21
  54490.448    0.5145E-21
  54490.517    0.5426E-21
  54490.586    0.5304E-21
  54490.655    0.5384E-21
  54490.724    0.5708E-21
  54490.793    0.6116E-21
  54490.862    0.6568E-21
  54490.931    0.7446E-21
  54491.000    0.8082E-21
  54491.069    0.8727E-21
  54491.137    0.9645E-21
  54491.206    0.1031E-20
  54491.275    0.1081E-20
  54491.344    0.1081E-20
  54491.413    0.1035E-20
  54491.482    0.1013E-20
  54491.551    0.1031E-20
  54491.620    0.1040E-20
  54491.689    0.1049E-20
  54491.757    0.1039E-20
  54491.826    0.1035E-20
  54491.895    0.1017E-20
  54491.964    0.9591E-21
  54492.033    0.8976E-21
  54492.102    0.8541E-21
  54492.171    0.8068E-21
  54492.240    0.8195E-21
  54492.309    0.8366E-21
  54492.378    0.8151E-21
  54492.446    0.8365E-21
  54492.515    0.8536E-21
  54492.584    0.8363E-21
  54492.653    0.8276E-21
  54492.722    0.7890E-21
  54492.791    0.7634E-21
  54492.860    0.7507E-21
  54492.929    0.7464E-21
  54492.998    0.7674E-21
  54493.067    0.7546E-21
  54493.136    0.7715E-21
  54493.204    0.8184E-21
  54493.273    0.8312E-21
  54493.342    0.9266E-21
  54493.411    0.1033E-20
  54493.480    0.1114E-20
  54493.549    0.1211E-20
  54493.618    0.1300E-20
  54493.687    0.1352E-20
  54493.756    0.1430E-20
  54493.825    0.1498E-20
  54493.893    0.1578E-20
  54493.962    0.1638E-20
  54494.031    0.1710E-20
  54494.100    0.1809E-20
  54494.169    0.1916E-20
  54494.238    0.1986E-20
  54494.307    0.1992E-20
  54494.376    0.1997E-20
  54494.445    0.2008E-20
  54494.514    0.1969E-20
  54494.583    0.1931E-20
  54494.651    0.1915E-20
  54494.720    0.1899E-20
  54494.789    0.1910E-20
  54494.858    0.1920E-20
  54494.927    0.1909E-20
  54494.996    0.1915E-20
  54495.065    0.1952E-20
  54495.134    0.1963E-20
  54495.203    0.2018E-20
  54495.272    0.2112E-20
  54495.341    0.2243E-20
  54495.409    0.2420E-20
  54495.478    0.2584E-20
  54495.547    0.2761E-20
  54495.616    0.2971E-20
  54495.685    0.3205E-20
  54495.754    0.3458E-20
  54495.823    0.3525E-20
  54495.892    0.3830E-20
  54495.961    0.4200E-20
  54496.030    0.4635E-20
  54496.099    0.5139E-20
  54496.167    0.5727E-20
  54496.236    0.6385E-20
  54496.305    0.7203E-20
  54496.374    0.8196E-20
  54496.443    0.9101E-20
  54496.512    0.1066E-19
  54496.581    0.1236E-19
  54496.650    0.1424E-19
  54496.719    0.1623E-19
  54496.788    0.1815E-19
  54496.857    0.1981E-19
  54496.926    0.2197E-19
  54496.994    0.2295E-19
  54497.063    0.2315E-19
  54497.132    0.2299E-19
  54497.201    0.2258E-19
  54497.270    0.2202E-19
  54497.339    0.2115E-19
  54497.408    0.2045E-19
  54497.477    0.1974E-19
  54497.546    0.1917E-19
  54497.615    0.1852E-19
  54497.684    0.1778E-19
  54497.753    0.1694E-19
  54497.821    0.1592E-19
  54497.890    0.1498E-19
  54497.959    0.1406E-19
  54498.028    0.1306E-19
  54498.097    0.1211E-19
  54498.166    0.1038E-19
  54498.235    0.9573E-20
  54498.304    0.8786E-20
  54498.373    0.7420E-20
  54498.442    0.6811E-20
  54498.511    0.6295E-20
  54498.580    0.5809E-20
  54498.648    0.5348E-20
  54498.717    0.4930E-20
  54498.786    0.4558E-20
  54498.855    0.4336E-20
  54498.924    0.4188E-20
  54498.993    0.4004E-20
  54499.062    0.3732E-20
  54499.131    0.3448E-20
  54499.200    0.3054E-20
  54499.269    0.2946E-20
  54499.338    0.2886E-20
  54499.407    0.2840E-20
  54499.476    0.2788E-20
  54499.544    0.2749E-20
  54499.613    0.2717E-20
  54499.682    0.2698E-20
  54499.751    0.2723E-20
  54499.820    0.2768E-20
  54499.889    0.2794E-20
  54499.958    0.2826E-20
  54500.027    0.2859E-20
  54500.096    0.2866E-20
  54500.165    0.2892E-20
  54500.234    0.2938E-20
  54500.303    0.3039E-20
  54500.372    0.3192E-20
  54500.441    0.3256E-20
  54500.509    0.3234E-20
  54500.578    0.3178E-20
  54500.647    0.3149E-20
  54500.716    0.3094E-20
  54500.785    0.3080E-20
  54500.854    0.3163E-20
  54500.923    0.3198E-20
  54500.992    0.3219E-20
  54501.061    0.3170E-20
  54501.130    0.3135E-20
  54501.199    0.3184E-20
  54501.268    0.3262E-20
  54501.337    0.3385E-20
  54501.406    0.3481E-20
  54501.474    0.3594E-20
  54501.543    0.3605E-20
  54501.612    0.3685E-20
  54501.681    0.3778E-20
  54501.750    0.3854E-20
  54501.819    0.3918E-20
  54501.888    0.4018E-20
  54501.957    0.4165E-20
  54502.026    0.4358E-20
  54502.095    0.4553E-20
  54502.164    0.4774E-20
  54502.233    0.4977E-20
  54502.302    0.5212E-20
  54502.371    0.5532E-20
  54502.439    0.5869E-20
  54502.508    0.6307E-20
  54502.577    0.6760E-20
  54502.646    0.7239E-20
  54502.715    0.7779E-20
  54502.784    0.8662E-20
  54502.853    0.9461E-20
  54502.922    0.1036E-19
  54502.991    0.1153E-19
  54503.060    0.1298E-19
  54503.129    0.1455E-19
  54503.198    0.1634E-19
  54503.267    0.1817E-19
  54503.336    0.2018E-19
  54503.405    0.2295E-19
  54503.474    0.2791E-19
  54503.542    0.3249E-19
  54503.611    0.3777E-19
  54503.680    0.4521E-19
  54503.749    0.5098E-19
  54503.818    0.5682E-19
  54503.887    0.6554E-19
  54503.956    0.7079E-19
  54504.025    0.7504E-19
  54504.094    0.7719E-19
  54504.163    0.7804E-19
  54504.232    0.7775E-19
  54504.301    0.7631E-19
  54504.370    0.7456E-19
  54504.439    0.7174E-19
  54504.508    0.6807E-19
  54504.577    0.5946E-19
  54504.645    0.5466E-19
  54504.714    0.4992E-19
  54504.783    0.4419E-19
  54504.852    0.4016E-19
  54504.921    0.3622E-19
  54504.990    0.3244E-19
  54505.059    0.2892E-19
  54505.128    0.2370E-19
  54505.197    0.2099E-19
  54505.266    0.1778E-19
  54505.335    0.1592E-19
  54505.404    0.1438E-19
  54505.473    0.1307E-19
  54505.542    0.1177E-19
  54505.611    0.1003E-19
  54505.680    0.9137E-20
  54505.749    0.8248E-20
  54505.817    0.7649E-20
  54505.886    0.7118E-20
  54505.955    0.6652E-20
  54506.024    0.6231E-20
  54506.093    0.5871E-20
  54506.162    0.5545E-20
  54506.231    0.5248E-20
  54506.300    0.4964E-20
  54506.369    0.4670E-20
  54506.438    0.4396E-20
  54506.507    0.4132E-20
  54506.576    0.3892E-20
  54506.645    0.3724E-20
  54506.714    0.3547E-20
  54506.783    0.3170E-20
  54506.852    0.2997E-20
  54506.921    0.2818E-20
  54506.990    0.2740E-20
  54507.059    0.2702E-20
  54507.127    0.2645E-20
  54507.196    0.2563E-20
  54507.265    0.2502E-20
  54507.334    0.2465E-20
  54507.403    0.2465E-20
  54507.472    0.2459E-20
  54507.541    0.2477E-20
  54507.610    0.2557E-20
  54507.679    0.2625E-20
  54507.748    0.2644E-20
  54507.817    0.2644E-20
  54507.886    0.2631E-20
  54507.955    0.2631E-20
  54508.024    0.2644E-20
  54508.093    0.2643E-20
  54508.162    0.2593E-20
  54508.231    0.2525E-20
  54508.300    0.2434E-20
  54508.369    0.2338E-20
  54508.438    0.2245E-20
  54508.506    0.2153E-20
  54508.575    0.2057E-20
  54508.644    0.1952E-20
  54508.713    0.1876E-20
  54508.782    0.1812E-20
  54508.851    0.1713E-20
  54508.920    0.1625E-20
  54508.989    0.1569E-20
  54509.058    0.1529E-20
  54509.127    0.1504E-20
  54509.196    0.1474E-20
  54509.265    0.1455E-20
  54509.334    0.1445E-20
  54509.403    0.1430E-20
  54509.472    0.1406E-20
  54509.541    0.1376E-20
  54509.610    0.1357E-20
  54509.679    0.1357E-20
  54509.748    0.1400E-20
  54509.817    0.1479E-20
  54509.886    0.1553E-20
  54509.955    0.1578E-20
  54510.024    0.1593E-20
  54510.092    0.1578E-20
  54510.161    0.1548E-20
  54510.230    0.1548E-20
  54510.299    0.1563E-20
  54510.368    0.1593E-20
  54510.437    0.1558E-20
  54510.506    0.1478E-20
  54510.575    0.1390E-20
  54510.644    0.1284E-20
  54510.713    0.1204E-20
  54510.782    0.1153E-20
  54510.851    0.1116E-20
  54510.920    0.1052E-20
  54510.989    0.9891E-21
  54511.058    0.9534E-21
  54511.127    0.9224E-21
  54511.196    0.9047E-21
  54511.265    0.8697E-21
  54511.334    0.8696E-21
  54511.403    0.8391E-21
  54511.472    0.8175E-21
  54511.541    0.7959E-21
  54511.610    0.7319E-21
  54511.679    0.6897E-21
  54511.748    0.6729E-21
  54511.817    0.6686E-21
  54511.885    0.6811E-21
  54511.954    0.6768E-21
  54512.023    0.6475E-21
  54512.092    0.6558E-21
  54512.161    0.6682E-21
  54512.230    0.6890E-21
  54512.299    0.6932E-21
  54512.368    0.7057E-21
  54512.437    0.6930E-21
  54512.506    0.6511E-21
  54512.575    0.6469E-21
  54512.644    0.6718E-21
  54512.713    0.7263E-21
  54512.782    0.8073E-21
  54512.851    0.8547E-21
  54512.920    0.8590E-21
  54512.989    0.8502E-21
  54513.058    0.8198E-21
  54513.127    0.8414E-21
  54513.196    0.8935E-21
  54513.265    0.9729E-21
  54513.334    0.1027E-20
  54513.403    0.1081E-20
  54513.472    0.1136E-20
  54513.541    0.1186E-20
  54513.610    0.1261E-20
  54513.679    0.1328E-20
  54513.748    0.1415E-20
  54513.817    0.1543E-20
  54513.886    0.1691E-20
  54513.954    0.1790E-20
  54514.023    0.1838E-20
  54514.092    0.1886E-20
  54514.161    0.1897E-20
  54514.230    0.1891E-20
  54514.299    0.1880E-20
  54514.368    0.1837E-20
  54514.437    0.1753E-20
  54514.506    0.1623E-20
  54514.575    0.1542E-20
  54514.644    0.1453E-20
  54514.713    0.1380E-20
  54514.782    0.1322E-20
  54514.851    0.1246E-20
  54514.920    0.1185E-20
  54514.989    0.1166E-20
  54515.058    0.1175E-20
  54515.127    0.1208E-20
  54515.196    0.1255E-20
  54515.265    0.1307E-20
  54515.334    0.1336E-20
  54515.403    0.1359E-20
  54515.472    0.1350E-20
  54515.541    0.1321E-20
  54515.610    0.1306E-20
  54515.679    0.1240E-20
  54515.748    0.1174E-20
  54515.817    0.1151E-20
  54515.886    0.1128E-20
  54515.955    0.1110E-20
  54516.024    0.1078E-20
  54516.093    0.1032E-20
  54516.162    0.1010E-20
  54516.231    0.1001E-20
  54516.300    0.9558E-21
  54516.369    0.9028E-21
  54516.438    0.8721E-21
  54516.507    0.8546E-21
  54516.576    0.8545E-21
  54516.645    0.8457E-21
  54516.714    0.8543E-21
  54516.782    0.8673E-21
  54516.851    0.8716E-21
  54516.920    0.8454E-21
  54516.989    0.8021E-21
  54517.058    0.7592E-21
  54517.127    0.7421E-21
  54517.196    0.7420E-21
  54517.265    0.7632E-21
  54517.334    0.8017E-21
  54517.403    0.8709E-21
  54517.472    0.9367E-21
  54517.541    0.9587E-21
  54517.610    0.9720E-21
  54517.679    0.1012E-20
  54517.748    0.1048E-20
  54517.817    0.1098E-20
  54517.886    0.1144E-20
  54517.955    0.1181E-20
  54518.024    0.1186E-20
  54518.093    0.1265E-20
  54518.162    0.1342E-20
  54518.231    0.1463E-20
  54518.300    0.1548E-20
  54518.369    0.1603E-20
  54518.438    0.1629E-20
  54518.507    0.1649E-20
  54518.576    0.1722E-20
  54518.645    0.1816E-20
  54518.714    0.1864E-20
  54518.783    0.1869E-20
  54518.852    0.1864E-20
  54518.921    0.1864E-20
  54518.990    0.1837E-20
  54519.059    0.1810E-20
  54519.128    0.1778E-20
  54519.197    0.1768E-20
  54519.266    0.1757E-20
  54519.335    0.1731E-20
  54519.404    0.1710E-20
  54519.473    0.1684E-20
  54519.542    0.1643E-20
  54519.611    0.1592E-20
  54519.680    0.1566E-20
  54519.749    0.1531E-20
  54519.818    0.1511E-20
  54519.887    0.1476E-20
  54519.956    0.1422E-20
  54520.025    0.1354E-20
  54520.094    0.1320E-20
  54520.163    0.1310E-20
  54520.232    0.1296E-20
  54520.301    0.1220E-20
  54520.370    0.1127E-20
  54520.439    0.1045E-20
  54520.508    0.9684E-21
  54520.577    0.9373E-21
  54520.646    0.9151E-21
  54520.715    0.9150E-21
  54520.784    0.9149E-21
  54520.853    0.9281E-21
  54520.922    0.9546E-21
  54520.991    0.9679E-21
  54521.060    0.1031E-20
  54521.129    0.1080E-20
  54521.198    0.1126E-20
  54521.267    0.1214E-20
  54521.336    0.1304E-20
  54521.405    0.1362E-20
  54521.474    0.1450E-20
  54521.543    0.1539E-20
  54521.612    0.1615E-20
  54521.681    0.1713E-20
  54521.750    0.1807E-20
  54521.819    0.1882E-20
  54521.888    0.1920E-20
  54521.957    0.1919E-20
  54522.026    0.1898E-20
  54522.095    0.1887E-20
  54522.164    0.1860E-20
  54522.233    0.1817E-20
  54522.302    0.1754E-20
  54522.371    0.1706E-20
  54522.440    0.1660E-20
  54522.509    0.1603E-20
  54522.578    0.1558E-20
  54522.647    0.1538E-20
  54522.716    0.1483E-20
  54522.785    0.1438E-20
  54522.854    0.1394E-20
  54522.923    0.1409E-20
  54522.992    0.1453E-20
  54523.061    0.1472E-20
  54523.130    0.1507E-20
  54523.199    0.1552E-20
  54523.268    0.1577E-20
  54523.337    0.1613E-20
  54523.406    0.1618E-20
  54523.475    0.1607E-20
  54523.544    0.1577E-20
  54523.613    0.1562E-20
  54523.682    0.1541E-20
  54523.751    0.1496E-20
  54523.820    0.1427E-20
  54523.889    0.1364E-20
  54523.958    0.1325E-20
  54524.027    0.1287E-20
  54524.096    0.1263E-20
  54524.165    0.1230E-20
  54524.234    0.1201E-20
  54524.303    0.1187E-20
  54524.372    0.1141E-20
  54524.441    0.1063E-20
  54524.510    0.1022E-20
  54524.579    0.9813E-21
  54524.648    0.9456E-21
  54524.717    0.9366E-21
  54524.786    0.9277E-21
  54524.855    0.9143E-21
  54524.924    0.9143E-21
  54524.993    0.9054E-21
  54525.062    0.9097E-21
  54525.131    0.9583E-21
  54525.200    0.9805E-21
  54525.269    0.9894E-21
  54525.338    0.9938E-21
  54525.407    0.1007E-20
  54525.476    0.9891E-21
  54525.545    0.9980E-21
  54525.614    0.1025E-20
  54525.683    0.1038E-20
  54525.752    0.1052E-20
  54525.821    0.1020E-20
  54525.890    0.1020E-20
  54525.959    0.1034E-20
  54526.028    0.1070E-20
  54526.097    0.1093E-20
  54526.166    0.1152E-20
  54526.235    0.1185E-20
  54526.304    0.1203E-20
  54526.373    0.1189E-20
  54526.442    0.1152E-20
  54526.511    0.1097E-20
  54526.580    0.1065E-20
  54526.649    0.1055E-20
  54526.718    0.1060E-20
  54526.787    0.1083E-20
  54526.856    0.1101E-20
  54526.925    0.1105E-20
  54526.994    0.1124E-20
  54527.063    0.1137E-20
  54527.132    0.1137E-20
  54527.201    0.1151E-20
  54527.270    0.1160E-20
  54527.339    0.1193E-20
  54527.408    0.1174E-20
  54527.477    0.1118E-20
  54527.546    0.1054E-20
  54527.615    0.1054E-20
  54527.684    0.1081E-20
  54527.753    0.1136E-20
  54527.822    0.1206E-20
  54527.891    0.1239E-20
  54527.960    0.1267E-20
  54528.029    0.1296E-20
  54528.098    0.1296E-20
  54528.167    0.1296E-20
  54528.236    0.1310E-20
  54528.305    0.1344E-20
  54528.374    0.1377E-20
  54528.443    0.1407E-20
  54528.512    0.1421E-20
  54528.581    0.1421E-20
  54528.650    0.1401E-20
  54528.719    0.1431E-20
  54528.788    0.1445E-20
  54528.857    0.1460E-20
  54528.926    0.1460E-20
  54528.995    0.1465E-20
  54529.065    0.1520E-20
  54529.134    0.1565E-20
  54529.203    0.1616E-20
  54529.272    0.1667E-20
  54529.341    0.1693E-20
  54529.410    0.1682E-20
  54529.479    0.1682E-20
  54529.548    0.1692E-20
  54529.617    0.1729E-20
  54529.686    0.1803E-20
  54529.755    0.1937E-20
  54529.824    0.2031E-20
  54529.893    0.2098E-20
  54529.962    0.2189E-20
  54530.031    0.2259E-20
  54530.100    0.2312E-20
  54530.169    0.2359E-20
  54530.238    0.2401E-20
  54530.307    0.2461E-20
  54530.376    0.2529E-20
  54530.445    0.2591E-20
  54530.514    0.2647E-20
  54530.583    0.2718E-20
  54530.652    0.2782E-20
  54530.721    0.2835E-20
  54530.790    0.2894E-20
  54530.859    0.2968E-20
  54530.928    0.3050E-20
  54530.997    0.3105E-20
  54531.066    0.3197E-20
  54531.135    0.3297E-20
  54531.204    0.3459E-20
  54531.273    0.3658E-20
  54531.342    0.3801E-20
  54531.411    0.3600E-20
  54531.480    0.3707E-20
  54531.549    0.3836E-20
  54531.618    0.3954E-20
  54531.687    0.4073E-20
  54531.756    0.4273E-20
  54531.825    0.4566E-20
  54531.895    0.4858E-20
  54531.964    0.5190E-20
  54532.033    0.5496E-20
  54532.102    0.5822E-20
  54532.171    0.6242E-20
  54532.240    0.6665E-20
  54532.309    0.7053E-20
  54532.378    0.7441E-20
  54532.447    0.7871E-20
  54532.516    0.8357E-20
  54532.585    0.8958E-20
  54532.654    0.8980E-20
  54532.723    0.9824E-20
  54532.792    0.1082E-19
  54532.861    0.1196E-19
  54532.930    0.1318E-19
  54532.999    0.1468E-19
  54533.068    0.1642E-19
  54533.137    0.1827E-19
  54533.206    0.2154E-19
  54533.275    0.2437E-19
  54533.344    0.2979E-19
  54533.413    0.3461E-19
  54533.482    0.4005E-19
  54533.551    0.4621E-19
  54533.620    0.5279E-19
  54533.689    0.5911E-19
  54533.758    0.6900E-19
  54533.827    0.7442E-19
  54533.896    0.7826E-19
  54533.966    0.7994E-19
  54534.035    0.8008E-19
  54534.104    0.7960E-19
  54534.173    0.7764E-19
  54534.242    0.7536E-19
  54534.311    0.7302E-19
  54534.380    0.6950E-19
  54534.449    0.6647E-19
  54534.518    0.6288E-19
  54534.587    0.5682E-19
  54534.656    0.5326E-19
  54534.725    0.4942E-19
  54534.794    0.4577E-19
  54534.863    0.3970E-19
  54534.932    0.3615E-19
  54535.001    0.3243E-19
  54535.070    0.2902E-19
  54535.139    0.2436E-19
  54535.208    0.2200E-19
  54535.277    0.1919E-19
  54535.346    0.1768E-19
  54535.415    0.1626E-19
  54535.484    0.1496E-19
  54535.553    0.1396E-19
  54535.622    0.1318E-19
  54535.691    0.1241E-19
  54535.761    0.1176E-19
  54535.830    0.1125E-19
  54535.899    0.1079E-19
  54535.968    0.1034E-19
  54536.037    0.9652E-20
  54536.106    0.9294E-20
  54536.175    0.9099E-20
  54536.244    0.8949E-20
  54536.313    0.8737E-20
  54536.382    0.8579E-20
  54536.451    0.8342E-20
  54536.520    0.8314E-20
  54536.589    0.8496E-20
  54536.658    0.8593E-20
  54536.727    0.8641E-20
  54536.796    0.8664E-20
  54536.865    0.8801E-20
  54536.934    0.8952E-20
  54537.003    0.9129E-20
  54537.072    0.9404E-20
  54537.141    0.9433E-20
  54537.210    0.9833E-20
  54537.279    0.1026E-19
  54537.349    0.1051E-19
  54537.418    0.1086E-19
  54537.487    0.1128E-19
  54537.556    0.1170E-19
  54537.625    0.1232E-19
  54537.694    0.1302E-19
  54537.763    0.1366E-19
  54537.832    0.1443E-19
  54537.901    0.1529E-19
  54537.970    0.1627E-19
  54538.039    0.1720E-19
  54538.108    0.1825E-19
  54538.177    0.1942E-19
  54538.246    0.2076E-19
  54538.315    0.2222E-19
  54538.384    0.2518E-19
  54538.453    0.2784E-19
  54538.522    0.3067E-19
  54538.591    0.3393E-19
  54538.660    0.3776E-19
  54538.730    0.4220E-19
  54538.799    0.4911E-19
  54538.868    0.5640E-19
  54538.937    0.6933E-19
  54539.006    0.8158E-19
  54539.075    0.9530E-19
  54539.144    0.1128E-18
  54539.213    0.1303E-18
  54539.282    0.1530E-18
  54539.351    0.1797E-18
  54539.420    0.1936E-18
  54539.489    0.2019E-18
  54539.558    0.2077E-18
  54539.627    0.2083E-18
  54539.696    0.2045E-18
  54539.765    0.1979E-18
  54539.834    0.1886E-18
  54539.903    0.1761E-18
  54539.972    0.1623E-18
  54540.042    0.1401E-18
  54540.111    0.1276E-18
  54540.180    0.1149E-18
  54540.249    0.9876E-19
  54540.318    0.8717E-19
  54540.387    0.7650E-19
  54540.456    0.6785E-19
  54540.525    0.5577E-19
  54540.594    0.4974E-19
  54540.663    0.4283E-19
  54540.732    0.3856E-19
  54540.801    0.3468E-19
  54540.870    0.3132E-19
  54540.939    0.2831E-19
  54541.008    0.2392E-19
  54541.077    0.2193E-19
  54541.146    0.1978E-19
  54541.216    0.1846E-19
  54541.285    0.1728E-19
  54541.354    0.1624E-19
  54541.423    0.1531E-19
  54541.492    0.1441E-19
  54541.561    0.1352E-19
  54541.630    0.1259E-19
  54541.699    0.1169E-19
  54541.768    0.1091E-19
  54541.837    0.9894E-20
  54541.906    0.9395E-20
  54541.975    0.8984E-20
  54542.044    0.8520E-20
  54542.113    0.7855E-20
  54542.182    0.7436E-20
  54542.251    0.7021E-20
  54542.321    0.6703E-20
  54542.390    0.6465E-20
  54542.459    0.6251E-20
  54542.528    0.6028E-20
  54542.597    0.5782E-20
  54542.666    0.5541E-20
  54542.735    0.5286E-20
  54542.804    0.5020E-20
  54542.873    0.4774E-20
  54542.942    0.4547E-20
  54543.011    0.4361E-20
  54543.080    0.4236E-20
  54543.149    0.4151E-20
  54543.218    0.4058E-20
  54543.287    0.3939E-20
  54543.356    0.3788E-20
  54543.426    0.3663E-20
  54543.495    0.3520E-20
  54543.564    0.3429E-20
  54543.633    0.3311E-20
  54543.702    0.3217E-20
  54543.771    0.3131E-20
  54543.840    0.3068E-20
  54543.909    0.3013E-20
  54543.978    0.2945E-20
  54544.047    0.2884E-20
  54544.116    0.2844E-20
  54544.185    0.2798E-20
  54544.254    0.2752E-20
  54544.323    0.2675E-20
  54544.393    0.2599E-20
  54544.462    0.2536E-20
  54544.531    0.2456E-20
  54544.600    0.2395E-20
  54544.669    0.2347E-20
  54544.738    0.2299E-20
  54544.807    0.2258E-20
  54544.876    0.2252E-20
  54544.945    0.2240E-20
  54545.014    0.2252E-20
  54545.083    0.2275E-20
  54545.152    0.2234E-20
  54545.221    0.2194E-20
  54545.290    0.2159E-20
  54545.360    0.2130E-20
  54545.429    0.2124E-20
  54545.498    0.2079E-20
  54545.567    0.1995E-20
  54545.636    0.1945E-20
  54545.705    0.1928E-20
  54545.774    0.1972E-20
  54545.843    0.2011E-20
  54545.912    0.2017E-20
  54545.981    0.2000E-20
  54546.050    0.1983E-20
  54546.119    0.1961E-20
  54546.188    0.1939E-20
  54546.257    0.1895E-20
  54546.327    0.1873E-20
  54546.396    0.1895E-20
  54546.465    0.1911E-20
  54546.534    0.1873E-20
  54546.603    0.1851E-20
  54546.672    0.1835E-20
  54546.741    0.1824E-20
  54546.810    0.1856E-20
  54546.879    0.1867E-20
  54546.948    0.1910E-20
  54547.017    0.1938E-20
  54547.086    0.1916E-20
  54547.155    0.1888E-20
  54547.225    0.1818E-20
  54547.294    0.1733E-20
  54547.363    0.1686E-20
  54547.432    0.1676E-20
  54547.501    0.1655E-20
  54547.570    0.1655E-20
  54547.639    0.1665E-20
  54547.708    0.1654E-20
  54547.777    0.1608E-20
  54547.846    0.1582E-20
  54547.915    0.1639E-20
  54547.984    0.1690E-20
  54548.054    0.1685E-20
  54548.123    0.1628E-20
  54548.192    0.1562E-20
  54548.261    0.1531E-20
  54548.330    0.1531E-20
  54548.399    0.1531E-20
  54548.468    0.1531E-20
  54548.537    0.1536E-20
  54548.606    0.1536E-20
  54548.675    0.1541E-20
  54548.744    0.1541E-20
  54548.813    0.1530E-20
  54548.883    0.1556E-20
  54548.952    0.1591E-20
  54549.021    0.1576E-20
  54549.090    0.1530E-20
  54549.159    0.1540E-20
  54549.228    0.1560E-20
  54549.297    0.1611E-20
  54549.366    0.1663E-20
  54549.435    0.1663E-20
  54549.504    0.1606E-20
  54549.573    0.1575E-20
  54549.642    0.1585E-20
  54549.712    0.1595E-20
  54549.781    0.1611E-20
  54549.850    0.1647E-20
  54549.919    0.1647E-20
  54549.988    0.1631E-20
  54550.057    0.1631E-20
  54550.126    0.1636E-20
  54550.195    0.1636E-20
  54550.264    0.1631E-20
  54550.333    0.1600E-20
  54550.402    0.1574E-20
  54550.472    0.1549E-20
  54550.541    0.1503E-20
  54550.610    0.1453E-20
  54550.679    0.1399E-20
  54550.748    0.1364E-20
  54550.817    0.1355E-20
  54550.886    0.1364E-20
  54550.955    0.1403E-20
  54551.024    0.1438E-20
  54551.093    0.1477E-20
  54551.162    0.1472E-20
  54551.232    0.1477E-20
  54551.301    0.1492E-20
  54551.370    0.1482E-20
  54551.439    0.1487E-20
  54551.508    0.1477E-20
  54551.577    0.1447E-20
  54551.646    0.1407E-20
  54551.715    0.1373E-20
  54551.784    0.1363E-20
  54551.853    0.1397E-20
  54551.922    0.1427E-20
  54551.992    0.1471E-20
  54552.061    0.1526E-20
  54552.130    0.1552E-20
  54552.199    0.1572E-20
  54552.268    0.1597E-20
  54552.337    0.1577E-20
  54552.406    0.1577E-20
  54552.475    0.1541E-20
  54552.544    0.1491E-20
  54552.613    0.1491E-20
  54552.683    0.1501E-20
  54552.752    0.1510E-20
  54552.821    0.1531E-20
  54552.890    0.1576E-20
  54552.959    0.1643E-20
  54553.028    0.1695E-20
  54553.097    0.1700E-20
  54553.166    0.1679E-20
  54553.235    0.1705E-20
  54553.304    0.1773E-20
  54553.374    0.1848E-20
  54553.443    0.1908E-20
  54553.512    0.1913E-20
  54553.581    0.1924E-20
  54553.650    0.1990E-20
  54553.719    0.2052E-20
  54553.788    0.2183E-20
  54553.857    0.2342E-20
  54553.926    0.2506E-20
  54553.995    0.2682E-20
  54554.065    0.2832E-20
  54554.134    0.2899E-20
  54554.203    0.2926E-20
  54554.272    0.2939E-20
  54554.341    0.2932E-20
  54554.410    0.2865E-20
  54554.479    0.2779E-20
  54554.548    0.2688E-20
  54554.617    0.2599E-20
  54554.686    0.2517E-20
  54554.756    0.2443E-20
  54554.825    0.2389E-20
  54554.894    0.2328E-20
  54554.963    0.2299E-20
  54555.032    0.2299E-20
  54555.101    0.2298E-20
  54555.170    0.2228E-20
  54555.239    0.2193E-20
  54555.308    0.2193E-20
  54555.377    0.2204E-20
  54555.447    0.2210E-20
  54555.516    0.2181E-20
  54555.585    0.2210E-20
  54555.654    0.2227E-20
  54555.723    0.2198E-20
  54555.792    0.2192E-20
  54555.861    0.2175E-20
  54555.930    0.2140E-20
  54555.999    0.2151E-20
  54556.069    0.2174E-20
  54556.138    0.2168E-20
  54556.207    0.2151E-20
  54556.276    0.2163E-20
  54556.345    0.2209E-20
  54556.414    0.2273E-20
  54556.483    0.2350E-20
  54556.552    0.2411E-20
  54556.621    0.2453E-20
  54556.691    0.2515E-20
  54556.760    0.2552E-20
  54556.829    0.2558E-20
  54556.898    0.2552E-20
  54556.967    0.2514E-20
  54557.036    0.2471E-20
  54557.105    0.2422E-20
  54557.174    0.2344E-20
  54557.243    0.2326E-20
  54557.313    0.2367E-20
  54557.382    0.2452E-20
  54557.451    0.2508E-20
  54557.520    0.2595E-20
  54557.589    0.2678E-20
  54557.658    0.2703E-20
  54557.727    0.2736E-20
  54557.796    0.2762E-20
  54557.865    0.2768E-20
  54557.935    0.2801E-20
  54558.004    0.2827E-20
  54558.073    0.2867E-20
  54558.142    0.2941E-20
  54558.211    0.3009E-20
  54558.280    0.3058E-20
  54558.349    0.3106E-20
  54558.418    0.3163E-20
  54558.487    0.3184E-20
  54558.557    0.3220E-20
  54558.626    0.3234E-20
  54558.695    0.3256E-20
  54558.764    0.3263E-20
  54558.833    0.3263E-20
  54558.902    0.3343E-20
  54558.971    0.3402E-20
  54559.040    0.3478E-20
  54559.110    0.3523E-20
  54559.179    0.3546E-20
  54559.248    0.3608E-20
  54559.317    0.3531E-20
  54559.386    0.3620E-20
  54559.455    0.3733E-20
  54559.524    0.3865E-20
  54559.593    0.3965E-20
  54559.662    0.4028E-20
  54559.732    0.4054E-20
  54559.801    0.4097E-20
  54559.870    0.4142E-20
  54559.939    0.4241E-20
  54560.008    0.4324E-20
  54560.077    0.4442E-20
  54560.146    0.4573E-20
  54560.215    0.4678E-20
  54560.285    0.4780E-20
  54560.354    0.4924E-20
  54560.423    0.5077E-20
  54560.492    0.5242E-20
  54560.561    0.5454E-20
  54560.630    0.5651E-20
  54560.699    0.5775E-20
  54560.768    0.5950E-20
  54560.838    0.6124E-20
  54560.907    0.6318E-20
  54560.976    0.6520E-20
  54561.045    0.6764E-20
  54561.114    0.7032E-20
  54561.183    0.7231E-20
  54561.252    0.7420E-20
  54561.321    0.7547E-20
  54561.391    0.7693E-20
  54561.460    0.7916E-20
  54561.529    0.8191E-20
  54561.598    0.8527E-20
  54561.667    0.8846E-20
  54561.736    0.8896E-20
  54561.805    0.9252E-20
  54561.874    0.9364E-20
  54561.944    0.9919E-20
  54562.013    0.1048E-19
  54562.082    0.1091E-19
  54562.151    0.1153E-19
  54562.220    0.1224E-19
  54562.289    0.1292E-19
  54562.358    0.1355E-19
  54562.427    0.1426E-19
  54562.497    0.1507E-19
  54562.566    0.1611E-19
  54562.635    0.1724E-19
  54562.704    0.1846E-19
  54562.773    0.1988E-19
  54562.842    0.2119E-19
  54562.911    0.2317E-19
  54562.980    0.2571E-19
  54563.050    0.2770E-19
  54563.119    0.2995E-19
  54563.188    0.3257E-19
  54563.257    0.3557E-19
  54563.326    0.3875E-19
  54563.395    0.4218E-19
  54563.464    0.4747E-19
  54563.534    0.5286E-19
  54563.603    0.5949E-19
  54563.672    0.7153E-19
  54563.741    0.8248E-19
  54563.810    0.9567E-19
  54563.879    0.1171E-18
  54563.948    0.1331E-18
  54564.017    0.1499E-18
  54564.087    0.1786E-18
  54564.156    0.1954E-18
  54564.225    0.2091E-18
  54564.294    0.2168E-18
  54564.363    0.2208E-18
  54564.432    0.2213E-18
  54564.501    0.2166E-18
  54564.571    0.2103E-18
  54564.640    0.2038E-18
  54564.709    0.1953E-18
  54564.778    0.1857E-18
  54564.847    0.1760E-18
  54564.916    0.1661E-18
  54564.985    0.1464E-18
  54565.054    0.1355E-18
  54565.124    0.1245E-18
  54565.193    0.1129E-18
  54565.262    0.9897E-19
  54565.331    0.8919E-19
  54565.400    0.8041E-19
  54565.469    0.7234E-19
  54565.538    0.6021E-19
  54565.608    0.5489E-19
  54565.677    0.5026E-19
  54565.746    0.4596E-19
  54565.815    0.4140E-19
  54565.884    0.3872E-19
  54565.953    0.3664E-19
  54566.022    0.3511E-19
  54566.092    0.3367E-19
  54566.161    0.3210E-19
  54566.230    0.3081E-19
  54566.299    0.2999E-19
  54566.368    0.2947E-19
  54566.437    0.2953E-19
  54566.506    0.2987E-19
  54566.576    0.2991E-19
  54566.645    0.3009E-19
  54566.714    0.2986E-19
  54566.783    0.2967E-19
  54566.852    0.2994E-19
  54566.921    0.3036E-19
  54566.990    0.3097E-19
  54567.060    0.3184E-19
  54567.129    0.3275E-19
  54567.198    0.3344E-19
  54567.267    0.3405E-19
  54567.336    0.3531E-19
  54567.405    0.3707E-19
  54567.474    0.3934E-19
  54567.544    0.4152E-19
  54567.613    0.4411E-19
  54567.682    0.4774E-19
  54567.751    0.5192E-19
  54567.820    0.5694E-19
  54567.889    0.6409E-19
  54567.958    0.7132E-19
  54568.028    0.7948E-19
  54568.097    0.8857E-19
  54568.166    0.9876E-19
  54568.235    0.1161E-18
  54568.304    0.1332E-18
  54568.373    0.1524E-18
  54568.442    0.1900E-18
  54568.512    0.2200E-18
  54568.581    0.2583E-18
  54568.650    0.2937E-18
  54568.719    0.3268E-18
  54568.788    0.3717E-18
  54568.857    0.3970E-18
  54568.927    0.4112E-18
  54568.996    0.4151E-18
  54569.065    0.4094E-18
  54569.134    0.3973E-18
  54569.203    0.3789E-18
  54569.272    0.3567E-18
  54569.341    0.3247E-18
  54569.411    0.3012E-18
  54569.480    0.2750E-18
  54569.549    0.2509E-18
  54569.618    0.2272E-18
  54569.687    0.1971E-18
  54569.756    0.1622E-18
  54569.825    0.1362E-18
  54569.895    0.1204E-18
  54569.964    0.1031E-18
  54570.033    0.9263E-19
  54570.102    0.8327E-19
  54570.171    0.7484E-19
  54570.240    0.6236E-19
  54570.310    0.5724E-19
  54570.379    0.5296E-19
  54570.448    0.4940E-19
  54570.517    0.4556E-19
  54570.586    0.3875E-19
  54570.655    0.3616E-19
  54570.725    0.3404E-19
  54570.794    0.3214E-19
  54570.863    0.3067E-19
  54570.932    0.2895E-19
  54571.001    0.2719E-19
  54571.070    0.2563E-19
  54571.139    0.2338E-19
  54571.209    0.2196E-19
  54571.278    0.2005E-19
  54571.347    0.1885E-19
  54571.416    0.1778E-19
  54571.485    0.1662E-19
  54571.554    0.1565E-19
  54571.624    0.1489E-19
  54571.693    0.1414E-19
  54571.762    0.1344E-19
  54571.831    0.1289E-19
  54571.900    0.1231E-19
  54571.969    0.1180E-19
  54572.038    0.1126E-19
  54572.108    0.1066E-19
  54572.177    0.1024E-19
  54572.246    0.9821E-20
  54572.315    0.9514E-20
  54572.384    0.9164E-20
  54572.453    0.8818E-20
  54572.523    0.8614E-20
  54572.592    0.8408E-20
  54572.661    0.8262E-20
  54572.730    0.8130E-20
  54572.799    0.7949E-20
  54572.868    0.7704E-20
  54572.938    0.7467E-20
  54573.007    0.7286E-20
  54573.076    0.7156E-20
  54573.145    0.7001E-20
  54573.214    0.6852E-20
  54573.283    0.6713E-20
  54573.353    0.6599E-20
  54573.422    0.6517E-20
  54573.491    0.6444E-20
  54573.560    0.6328E-20
  54573.629    0.6179E-20
  54573.698    0.6012E-20
  54573.768    0.5813E-20
  54573.837    0.5628E-20
  54573.906    0.5475E-20
  54573.975    0.5392E-20
  54574.044    0.5328E-20
  54574.113    0.5293E-20
  54574.183    0.5256E-20
  54574.252    0.5143E-20
  54574.321    0.5033E-20
  54574.390    0.4946E-20
  54574.459    0.4852E-20
  54574.528    0.4775E-20
  54574.598    0.4711E-20
  54574.667    0.4633E-20
  54574.736    0.4622E-20
  54574.805    0.4591E-20
  54574.874    0.4584E-20
  54574.943    0.4563E-20
  54575.013    0.4485E-20
  54575.082    0.4373E-20
  54575.151    0.4287E-20
  54575.220    0.4279E-20
  54575.289    0.4289E-20
  54575.358    0.4295E-20
  54575.428    0.4285E-20
  54575.497    0.4241E-20
  54575.566    0.4172E-20
  54575.635    0.4071E-20
  54575.704    0.3981E-20
  54575.773    0.3949E-20
  54575.843    0.3967E-20
  54575.912    0.3944E-20
  54575.981    0.3927E-20
  54576.050    0.3916E-20
  54576.119    0.3870E-20
  54576.189    0.3806E-20
  54576.258    0.3739E-20
  54576.327    0.3738E-20
  54576.396    0.3698E-20
  54576.465    0.3652E-20
  54576.534    0.3649E-20
  54576.604    0.3634E-20
  54576.673    0.3608E-20
  54576.742    0.3622E-20
  54576.811    0.3632E-20
  54576.880    0.3616E-20
  54576.949    0.3601E-20
  54577.019    0.3606E-20
  54577.088    0.3600E-20
  54577.157    0.3580E-20
  54577.226    0.3533E-20
  54577.295    0.3511E-20
  54577.364    0.3529E-20
  54577.434    0.3591E-20
  54577.503    0.3623E-20
  54577.572    0.3652E-20
  54577.641    0.3702E-20
  54577.710    0.3694E-20
  54577.780    0.3720E-20
  54577.849    0.3737E-20
  54577.918    0.3709E-20
  54577.987    0.3640E-20
  54578.056    0.3572E-20
  54578.125    0.3727E-20
  54578.195    0.3616E-20
  54578.264    0.3577E-20
  54578.333    0.3631E-20
  54578.402    0.3679E-20
  54578.471    0.3735E-20
  54578.541    0.3799E-20
  54578.610    0.3799E-20
  54578.679    0.3775E-20
  54578.748    0.3775E-20
  54578.817    0.3546E-20
  54578.886    0.3597E-20
  54578.956    0.3668E-20
  54579.025    0.3722E-20
  54579.094    0.3758E-20
  54579.163    0.3833E-20
  54579.232    0.3869E-20
  54579.302    0.3845E-20
  54579.371    0.3818E-20
  54579.440    0.3843E-20
  54579.509    0.3849E-20
  54579.578    0.3902E-20
  54579.647    0.3984E-20
  54579.717    0.3985E-20
  54579.786    0.3981E-20
  54579.855    0.4008E-20
  54579.924    0.4057E-20
  54579.993    0.4094E-20
  54580.063    0.4084E-20
  54580.132    0.4124E-20
  54580.201    0.4204E-20
  54580.270    0.4249E-20
  54580.339    0.4259E-20
  54580.409    0.4228E-20
  54580.478    0.4241E-20
  54580.547    0.4226E-20
  54580.616    0.4228E-20
  54580.685    0.4230E-20
  54580.754    0.4293E-20
  54580.824    0.4419E-20
  54580.893    0.4486E-20
  54580.962    0.4572E-20
  54581.031    0.4619E-20
  54581.100    0.4653E-20
  54581.170    0.4706E-20
  54581.239    0.4720E-20
  54581.308    0.4692E-20
  54581.377    0.4678E-20
  54581.446    0.4742E-20
  54581.516    0.4917E-20
  54581.585    0.5115E-20
  54581.654    0.5273E-20
  54581.723    0.5418E-20
  54581.792    0.5553E-20
  54581.861    0.5692E-20
  54581.931    0.5896E-20
  54582.000    0.6187E-20
  54582.069    0.6543E-20
  54582.138    0.6943E-20
  54582.207    0.7366E-20
  54582.277    0.7806E-20
  54582.346    0.8300E-20
  54582.415    0.8723E-20
  54582.484    0.8832E-20
  54582.553    0.9051E-20
  54582.623    0.9089E-20
  54582.692    0.9005E-20
  54582.761    0.8883E-20
  54582.830    0.8769E-20
  54582.899    0.8797E-20
  54582.969    0.8621E-20
  54583.038    0.8437E-20
  54583.107    0.8236E-20
  54583.176    0.7959E-20
  54583.245    0.7701E-20
  54583.315    0.7557E-20
  54583.384    0.7462E-20
  54583.453    0.7435E-20
  54583.522    0.7424E-20
  54583.591    0.7431E-20
  54583.661    0.7488E-20
  54583.730    0.7571E-20
  54583.799    0.7724E-20
  54583.868    0.7886E-20
  54583.937    0.8065E-20
  54584.007    0.8295E-20
  54584.076    0.8547E-20
  54584.145    0.8732E-20
  54584.214    0.8870E-20
  54584.283    0.8804E-20
  54584.353    0.8979E-20
  54584.422    0.9144E-20
  54584.491    0.9322E-20
  54584.560    0.9119E-20
  54584.629    0.9301E-20
  54584.699    0.9618E-20
  54584.768    0.9940E-20
  54584.837    0.1026E-19
  54584.906    0.1043E-19
  54584.975    0.1057E-19
  54585.045    0.1070E-19
  54585.114    0.1090E-19
  54585.183    0.1126E-19
  54585.252    0.1162E-19
  54585.321    0.1191E-19
  54585.391    0.1234E-19
  54585.460    0.1282E-19
  54585.529    0.1345E-19
  54585.598    0.1404E-19
  54585.667    0.1452E-19
  54585.737    0.1500E-19
  54585.806    0.1556E-19
  54585.875    0.1625E-19
  54585.944    0.1707E-19
  54586.013    0.1782E-19
  54586.083    0.1858E-19
  54586.152    0.1946E-19
  54586.221    0.2035E-19
  54586.290    0.2169E-19
  54586.359    0.2310E-19
  54586.429    0.2479E-19
  54586.498    0.2611E-19
  54586.567    0.2768E-19
  54586.636    0.2939E-19
  54586.705    0.3103E-19
  54586.775    0.3307E-19
  54586.844    0.3541E-19
  54586.913    0.3778E-19
  54586.982    0.4000E-19
  54587.052    0.4225E-19
  54587.121    0.4663E-19
  54587.190    0.4997E-19
  54587.259    0.5388E-19
  54587.328    0.5825E-19
  54587.398    0.6732E-19
  54587.467    0.7450E-19
  54587.536    0.8203E-19
  54587.605    0.9081E-19
  54587.674    0.1013E-18
  54587.744    0.1217E-18
  54587.813    0.1391E-18
  54587.882    0.1756E-18
  54587.951    0.2059E-18
  54588.020    0.2355E-18
  54588.090    0.2705E-18
  54588.159    0.3076E-18
  54588.228    0.3654E-18
  54588.297    0.3995E-18
  54588.367    0.4282E-18
  54588.436    0.4469E-18
  54588.505    0.4539E-18
  54588.574    0.4538E-18
  54588.643    0.4481E-18
  54588.713    0.4344E-18
  54588.782    0.4141E-18
  54588.851    0.3928E-18
  54588.920    0.3685E-18
  54588.989    0.3432E-18
  54589.059    0.3072E-18
  54589.128    0.2807E-18
  54589.197    0.2541E-18
  54589.266    0.2308E-18
  54589.336    0.2016E-18
  54589.405    0.1829E-18
  54589.474    0.1570E-18
  54589.543    0.1387E-18
  54589.612    0.1281E-18
  54589.682    0.1192E-18
  54589.751    0.1114E-18
  54589.820    0.1052E-18
  54589.889    0.9982E-19
  54589.958    0.9514E-19
  54590.028    0.9136E-19
  54590.097    0.8794E-19
  54590.166    0.8495E-19
  54590.235    0.8300E-19
  54590.305    0.8166E-19
  54590.374    0.8066E-19
  54590.443    0.8104E-19
  54590.512    0.8261E-19
  54590.581    0.8476E-19
  54590.651    0.8725E-19
  54590.720    0.9117E-19
  54590.789    0.9671E-19
  54590.858    0.1032E-18
  54590.928    0.1165E-18
  54590.997    0.1287E-18
  54591.066    0.1410E-18
  54591.135    0.1650E-18
  54591.204    0.1853E-18
  54591.274    0.2102E-18
  54591.343    0.2371E-18
  54591.412    0.2751E-18
  54591.481    0.3172E-18
  54591.551    0.3875E-18
  54591.620    0.4391E-18
  54591.689    0.4845E-18
  54591.758    0.5241E-18
  54591.827    0.5547E-18
  54591.897    0.5684E-18
  54591.966    0.5712E-18
  54592.035    0.5657E-18
  54592.104    0.5511E-18
  54592.174    0.5296E-18
  54592.243    0.5034E-18
  54592.312    0.4680E-18
  54592.381    0.4279E-18
  54592.451    0.3899E-18
  54592.520    0.3327E-18
  54592.589    0.2971E-18
  54592.658    0.2620E-18
  54592.727    0.2277E-18
  54592.797    0.1883E-18
  54592.866    0.1564E-18
  54592.935    0.1308E-18
  54593.004    0.1175E-18
  54593.074    0.1026E-18
  54593.143    0.9275E-19
  54593.212    0.8545E-19
  54593.281    0.7876E-19
  54593.350    0.7245E-19
  54593.420    0.6761E-19
  54593.489    0.6403E-19
  54593.558    0.5904E-19
  54593.627    0.5574E-19
  54593.697    0.5246E-19
  54593.766    0.4960E-19
  54593.835    0.4744E-19
  54593.904    0.4516E-19
  54593.974    0.4348E-19
  54594.043    0.4197E-19
  54594.112    0.4030E-19
  54594.181    0.3814E-19
  54594.250    0.3564E-19
  54594.320    0.3310E-19
  54594.389    0.3074E-19
  54594.458    0.2845E-19
  54594.527    0.2656E-19
  54594.597    0.2405E-19
  54594.666    0.2287E-19
  54594.735    0.2186E-19
  54594.804    0.2043E-19
  54594.874    0.1944E-19
  54594.943    0.1856E-19
  54595.012    0.1788E-19
  54595.081    0.1719E-19
  54595.151    0.1651E-19
  54595.220    0.1595E-19
  54595.289    0.1541E-19
  54595.358    0.1484E-19
  54595.427    0.1431E-19
  54595.497    0.1399E-19
  54595.566    0.1375E-19
  54595.635    0.1359E-19
  54595.704    0.1339E-19
  54595.774    0.1309E-19
  54595.843    0.1276E-19
  54595.912    0.1234E-19
  54595.981    0.1191E-19
  54596.051    0.1157E-19
  54596.120    0.1142E-19
  54596.189    0.1129E-19
  54596.258    0.1111E-19
  54596.328    0.1079E-19
  54596.397    0.1049E-19
  54596.466    0.1020E-19
  54596.535    0.9979E-20
  54596.604    0.9742E-20
  54596.674    0.9584E-20
  54596.743    0.9448E-20
  54596.812    0.9483E-20
  54596.881    0.9354E-20
  54596.951    0.9319E-20
  54597.020    0.9304E-20
  54597.089    0.9219E-20
  54597.158    0.9083E-20
  54597.228    0.8972E-20
  54597.297    0.8866E-20
  54597.366    0.9047E-20
  54597.435    0.8755E-20
  54597.505    0.8840E-20
  54597.574    0.8931E-20
  54597.643    0.8957E-20
  54597.712    0.8913E-20
  54597.782    0.8846E-20
  54597.851    0.8790E-20
  54597.920    0.8699E-20
  54597.989    0.8636E-20
  54598.059    0.8597E-20
  54598.128    0.8611E-20
  54598.197    0.8629E-20
  54598.266    0.8576E-20
  54598.336    0.8470E-20
  54598.405    0.8397E-20
  54598.474    0.8336E-20
  54598.543    0.8225E-20
  54598.613    0.8226E-20
  54598.682    0.8271E-20
  54598.751    0.8301E-20
  54598.820    0.8333E-20
  54598.890    0.8318E-20
  54598.959    0.8310E-20
  54599.028    0.8382E-20
  54599.097    0.8442E-20
  54599.167    0.8410E-20
  54599.236    0.8411E-20
  54599.305    0.8397E-20
  54599.374    0.8408E-20
  54599.444    0.8486E-20
  54599.513    0.8621E-20
  54599.582    0.8777E-20
  54599.651    0.8865E-20
  54599.721    0.8889E-20
  54599.790    0.8889E-20
  54599.859    0.8884E-20
  54599.928    0.8869E-20
  54599.998    0.8947E-20
  54600.067    0.8986E-20
  54600.136    0.9005E-20
  54600.205    0.9059E-20
  54600.275    0.8914E-20
  54600.344    0.9098E-20
  54600.413    0.9315E-20
  54600.482    0.9125E-20
  54600.552    0.9115E-20
  54600.621    0.9205E-20
  54600.690    0.9230E-20
  54600.759    0.9193E-20
  54600.829    0.9306E-20
  54600.898    0.9428E-20
  54600.967    0.9618E-20
  54601.036    0.9904E-20
  54601.106    0.1017E-19
  54601.175    0.1048E-19
  54601.244    0.1081E-19
  54601.313    0.1100E-19
  54601.383    0.1113E-19
  54601.452    0.1129E-19
  54601.521    0.1136E-19
  54601.590    0.1134E-19
  54601.660    0.1153E-19
  54601.729    0.1179E-19
  54601.798    0.1217E-19
  54601.867    0.1242E-19
  54601.937    0.1257E-19
  54602.006    0.1284E-19
  54602.075    0.1312E-19
  54602.144    0.1350E-19
  54602.214    0.1399E-19
  54602.283    0.1431E-19
  54602.352    0.1453E-19
  54602.421    0.1493E-19
  54602.491    0.1544E-19
  54602.560    0.1575E-19
  54602.629    0.1613E-19
  54602.698    0.1657E-19
  54602.768    0.1712E-19
  54602.837    0.1777E-19
  54602.906    0.1847E-19
  54602.976    0.1921E-19
  54603.045    0.1995E-19
  54603.114    0.2072E-19
  54603.183    0.2140E-19
  54603.253    0.2200E-19
  54603.322    0.2271E-19
  54603.391    0.2254E-19
  54603.460    0.2375E-19
  54603.530    0.2540E-19
  54603.599    0.2700E-19
  54603.668    0.2855E-19
  54603.737    0.3017E-19
  54603.807    0.3195E-19
  54603.876    0.3402E-19
  54603.945    0.3606E-19
  54604.014    0.3822E-19
  54604.084    0.4100E-19
  54604.153    0.4445E-19
  54604.222    0.4789E-19
  54604.292    0.5184E-19
  54604.361    0.5579E-19
  54604.430    0.6051E-19
  54604.499    0.6541E-19
  54604.569    0.7042E-19
  54604.638    0.7501E-19
  54604.707    0.7980E-19
  54604.776    0.8443E-19
  54604.846    0.8812E-19
  54604.915    0.9125E-19
  54604.984    0.9530E-19
  54605.053    0.9927E-19
  54605.123    0.1043E-18
  54605.192    0.1138E-18
  54605.261    0.1226E-18
  54605.331    0.1335E-18
  54605.400    0.1471E-18
  54605.469    0.1759E-18
  54605.538    0.1986E-18
  54605.608    0.2320E-18
  54605.677    0.2677E-18
  54605.746    0.3070E-18
  54605.815    0.3725E-18
  54605.885    0.4249E-18
  54605.954    0.4808E-18
  54606.023    0.5372E-18
  54606.092    0.5900E-18
  54606.162    0.6321E-18
  54606.231    0.6618E-18
  54606.300    0.6818E-18
  54606.370    0.6858E-18
  54606.439    0.6802E-18
  54606.508    0.6692E-18
  54606.577    0.6532E-18
  54606.647    0.6291E-18
  54606.716    0.5974E-18
  54606.785    0.5623E-18
  54606.854    0.5233E-18
  54606.924    0.4825E-18
  54606.993    0.4409E-18
  54607.062    0.3992E-18
  54607.132    0.3624E-18
  54607.201    0.3166E-18
  54607.270    0.2905E-18
  54607.339    0.2689E-18
  54607.409    0.2464E-18
  54607.478    0.2275E-18
  54607.547    0.2089E-18
  54607.617    0.2022E-18
  54607.686    0.1993E-18
  54607.755    0.1991E-18
  54607.824    0.2032E-18
  54607.894    0.2128E-18
  54607.963    0.2283E-18
  54608.032    0.2442E-18
  54608.101    0.2658E-18
  54608.171    0.2912E-18
  54608.240    0.3214E-18
  54608.309    0.3701E-18
  54608.379    0.4108E-18
  54608.448    0.4530E-18
  54608.517    0.4923E-18
  54608.586    0.5238E-18
  54608.656    0.5433E-18
  54608.725    0.5497E-18
  54608.794    0.5431E-18
  54608.864    0.5239E-18
  54608.933    0.4988E-18
  54609.002    0.4711E-18
  54609.071    0.4436E-18
  54609.141    0.4149E-18
  54609.210    0.3837E-18
  54609.279    0.3516E-18
  54609.348    0.3089E-18
  54609.418    0.2795E-18
  54609.487    0.2547E-18
  54609.556    0.2324E-18
  54609.626    0.2119E-18
  54609.695    0.1807E-18
  54609.764    0.1632E-18
  54609.833    0.1373E-18
  54609.903    0.1224E-18
  54609.972    0.1078E-18
  54610.041    0.9954E-19
  54610.111    0.9277E-19
  54610.180    0.8732E-19
  54610.249    0.8270E-19
  54610.318    0.7871E-19
  54610.388    0.7598E-19
  54610.457    0.7440E-19
  54610.526    0.7340E-19
  54610.596    0.7284E-19
  54610.665    0.7262E-19
  54610.734    0.7261E-19
  54610.803    0.7189E-19
  54610.873    0.7034E-19
  54610.942    0.6857E-19
  54611.011    0.6614E-19
  54611.081    0.6063E-19
  54611.150    0.5728E-19
  54611.219    0.5304E-19
  54611.288    0.4861E-19
  54611.358    0.4274E-19
  54611.427    0.3966E-19
  54611.496    0.3691E-19
  54611.566    0.3448E-19
  54611.635    0.3221E-19
  54611.704    0.3047E-19
  54611.773    0.2926E-19
  54611.843    0.2793E-19
  54611.912    0.2680E-19
  54611.981    0.2574E-19
  54612.051    0.2501E-19
  54612.120    0.2371E-19
  54612.189    0.2329E-19
  54612.259    0.2276E-19
  54612.328    0.2218E-19
  54612.397    0.2132E-19
  54612.466    0.2079E-19
  54612.536    0.2037E-19
  54612.605    0.2011E-19
  54612.674    0.1993E-19
  54612.744    0.1971E-19
  54612.813    0.1941E-19
  54612.882    0.1921E-19
  54612.951    0.1898E-19
  54613.021    0.1890E-19
  54613.090    0.1898E-19
  54613.159    0.1890E-19
  54613.229    0.1894E-19
  54613.298    0.1906E-19
  54613.367    0.1905E-19
  54613.436    0.1915E-19
  54613.506    0.1927E-19
  54613.575    0.1937E-19
  54613.644    0.1959E-19
  54613.714    0.1990E-19
  54613.783    0.2008E-19
  54613.852    0.2026E-19
  54613.922    0.2038E-19
  54613.991    0.2061E-19
  54614.060    0.2099E-19
  54614.129    0.2137E-19
  54614.199    0.2206E-19
  54614.268    0.2260E-19
  54614.337    0.2321E-19
  54614.407    0.2350E-19
  54614.476    0.2373E-19
  54614.545    0.2435E-19
  54614.615    0.2504E-19
  54614.684    0.2596E-19
  54614.753    0.2647E-19
  54614.822    0.2722E-19
  54614.892    0.2800E-19
  54614.961    0.2876E-19
  54615.030    0.2978E-19
  54615.100    0.3075E-19
  54615.169    0.3163E-19
  54615.238    0.3293E-19
  54615.308    0.3463E-19
  54615.377    0.3658E-19
  54615.446    0.3880E-19
  54615.515    0.4175E-19
  54615.585    0.4490E-19
  54615.654    0.4803E-19
  54615.723    0.5059E-19
  54615.793    0.5454E-19
  54615.862    0.5870E-19
  54615.931    0.6494E-19
  54616.001    0.7011E-19
  54616.070    0.7554E-19
  54616.139    0.8067E-19
  54616.208    0.8654E-19
  54616.278    0.9240E-19
  54616.347    0.9800E-19
  54616.416    0.1037E-18
  54616.486    0.1120E-18
  54616.555    0.1186E-18
  54616.624    0.1257E-18
  54616.694    0.1349E-18
  54616.763    0.1462E-18
  54616.832    0.1690E-18
  54616.902    0.1841E-18
  54616.971    0.2003E-18
  54617.040    0.2183E-18
  54617.109    0.2419E-18
  54617.179    0.2659E-18
  54617.248    0.2947E-18
  54617.317    0.3309E-18
  54617.387    0.3977E-18
  54617.456    0.4516E-18
  54617.525    0.5066E-18
  54617.595    0.5608E-18
  54617.664    0.6182E-18
  54617.733    0.6702E-18
  54617.803    0.7125E-18
  54617.872    0.7416E-18
  54617.941    0.7550E-18
  54618.010    0.7578E-18
  54618.080    0.7448E-18
  54618.149    0.7187E-18
  54618.218    0.6944E-18
  54618.288    0.6718E-18
  54618.357    0.6453E-18
  54618.426    0.6158E-18
  54618.496    0.5882E-18
  54618.565    0.5647E-18
  54618.634    0.5422E-18
  54618.704    0.5237E-18
  54618.773    0.5051E-18
  54618.842    0.4834E-18
  54618.911    0.4570E-18
  54618.981    0.4260E-18
  54619.050    0.3895E-18
  54619.119    0.3512E-18
  54619.189    0.3005E-18
  54619.258    0.2671E-18
  54619.327    0.2359E-18
  54619.397    0.2049E-18
  54619.466    0.1823E-18
  54619.535    0.1643E-18
  54619.605    0.1393E-18
  54619.674    0.1309E-18
  54619.743    0.1235E-18
  54619.813    0.1170E-18
  54619.882    0.1099E-18
  54619.951    0.1070E-18
  54620.021    0.1045E-18
  54620.090    0.1025E-18
  54620.159    0.1013E-18
  54620.228    0.1009E-18
  54620.298    0.1008E-18
  54620.367    0.1013E-18
  54620.436    0.1035E-18
  54620.506    0.1068E-18
  54620.575    0.1153E-18
  54620.644    0.1234E-18
  54620.714    0.1334E-18
  54620.783    0.1438E-18
  54620.852    0.1642E-18
  54620.922    0.1748E-18
  54620.991    0.1814E-18
  54621.060    0.1864E-18
  54621.130    0.1876E-18
  54621.199    0.1890E-18
  54621.268    0.1907E-18
  54621.338    0.1912E-18
  54621.407    0.1921E-18
  54621.476    0.1918E-18
  54621.546    0.1905E-18
  54621.615    0.1892E-18
  54621.684    0.1878E-18
  54621.753    0.1868E-18
  54621.823    0.1837E-18
  54621.892    0.1778E-18
  54621.961    0.1730E-18
  54622.031    0.1699E-18
  54622.100    0.1692E-18
  54622.169    0.1733E-18
  54622.239    0.1810E-18
  54622.308    0.1914E-18
  54622.377    0.2046E-18
  54622.447    0.2241E-18
  54622.516    0.2471E-18
  54622.585    0.2772E-18
  54622.655    0.3111E-18
  54622.724    0.3574E-18
  54622.793    0.3907E-18
  54622.863    0.4181E-18
  54622.932    0.4328E-18
  54623.001    0.4374E-18
  54623.071    0.4302E-18
  54623.140    0.4125E-18
  54623.209    0.3847E-18
  54623.279    0.3542E-18
  54623.348    0.3082E-18
  54623.417    0.2770E-18
  54623.487    0.2479E-18
  54623.556    0.2214E-18
  54623.625    0.1889E-18
  54623.695    0.1565E-18
  54623.764    0.1317E-18
  54623.833    0.1203E-18
  54623.903    0.1064E-18
  54623.972    0.9799E-19
  54624.041    0.9064E-19
  54624.111    0.8328E-19
  54624.180    0.7762E-19
  54624.249    0.7342E-19
  54624.319    0.6998E-19
  54624.388    0.6672E-19
  54624.457    0.6413E-19
  54624.527    0.6242E-19
  54624.596    0.6243E-19
  54624.665    0.6249E-19
  54624.735    0.6317E-19
  54624.804    0.6440E-19
  54624.873    0.6614E-19
  54624.943    0.6744E-19
  54625.012    0.6921E-19
  54625.081    0.7069E-19
  54625.151    0.7192E-19
  54625.220    0.7267E-19
  54625.289    0.7188E-19
  54625.359    0.6996E-19
  54625.428    0.6722E-19
  54625.497    0.6371E-19
  54625.567    0.5748E-19
  54625.636    0.5445E-19
  54625.705    0.5122E-19
  54625.775    0.4757E-19
  54625.844    0.4107E-19
  54625.913    0.3764E-19
  54625.983    0.3441E-19
  54626.052    0.3137E-19
  54626.121    0.2895E-19
  54626.191    0.2487E-19
  54626.260    0.2283E-19
  54626.329    0.2097E-19
  54626.399    0.1843E-19
  54626.468    0.1714E-19
  54626.537    0.1611E-19
  54626.607    0.1535E-19
  54626.676    0.1459E-19
  54626.745    0.1399E-19
  54626.815    0.1343E-19
  54626.884    0.1288E-19
  54626.953    0.1225E-19
  54627.023    0.1160E-19
  54627.092    0.1110E-19
  54627.161    0.1073E-19
  54627.231    0.1041E-19
  54627.300    0.9714E-20
  54627.369    0.9413E-20
  54627.439    0.9134E-20
  54627.508    0.8819E-20
  54627.577    0.8464E-20
  54627.647    0.8259E-20
  54627.716    0.8016E-20
  54627.785    0.7747E-20
  54627.855    0.7461E-20
  54627.924    0.7225E-20
  54627.993    0.7029E-20
  54628.063    0.6887E-20
  54628.132    0.6777E-20
  54628.201    0.6710E-20
  54628.271    0.6591E-20
  54628.340    0.6474E-20
  54628.409    0.6346E-20
  54628.479    0.6209E-20
  54628.548    0.6039E-20
  54628.617    0.5909E-20
  54628.687    0.5764E-20
  54628.756    0.5561E-20
  54628.826    0.5386E-20
  54628.895    0.5257E-20
  54628.964    0.5201E-20
  54629.034    0.5194E-20
  54629.103    0.5181E-20
  54629.172    0.5174E-20
  54629.242    0.5129E-20
  54629.311    0.5013E-20
  54629.380    0.4901E-20
  54629.450    0.4773E-20
  54629.519    0.4675E-20
  54629.588    0.4594E-20
  54629.658    0.4512E-20
  54629.727    0.4442E-20
  54629.796    0.4406E-20
  54629.866    0.4314E-20
  54629.935    0.4253E-20
  54630.004    0.4185E-20
  54630.074    0.4120E-20
  54630.143    0.4075E-20
  54630.212    0.4061E-20
  54630.282    0.4057E-20
  54630.351    0.4031E-20
  54630.421    0.3954E-20
  54630.490    0.3867E-20
  54630.559    0.3792E-20
  54630.629    0.3692E-20
  54630.698    0.3594E-20
  54630.767    0.3590E-20
  54630.837    0.3628E-20
  54630.906    0.3666E-20
  54630.975    0.3690E-20
  54631.045    0.3682E-20
  54631.114    0.3648E-20
  54631.183    0.3626E-20
  54631.253    0.3604E-20
  54631.322    0.3596E-20
  54631.391    0.3595E-20
  54631.461    0.3608E-20
  54631.530    0.3628E-20
  54631.599    0.3654E-20
  54631.669    0.3672E-20
  54631.738    0.3718E-20
  54631.808    0.3795E-20
  54631.877    0.3917E-20
  54631.946    0.4022E-20
  54632.016    0.4110E-20
  54632.085    0.4246E-20
  54632.154    0.4426E-20
  54632.224    0.4607E-20
  54632.293    0.4739E-20
  54632.362    0.4877E-20
  54632.432    0.5075E-20
  54632.501    0.5227E-20
  54632.570    0.5247E-20
  54632.640    0.5222E-20
  54632.709    0.5130E-20
  54632.779    0.4960E-20
  54632.848    0.4746E-20
  54632.917    0.4540E-20
  54632.987    0.4299E-20
  54633.056    0.4046E-20
  54633.125    0.3799E-20
  54633.195    0.3578E-20
  54633.264    0.3295E-20
  54633.333    0.3134E-20
  54633.403    0.2992E-20
  54633.472    0.2867E-20
  54633.541    0.2806E-20
  54633.611    0.2806E-20
  54633.680    0.2793E-20
  54633.750    0.2726E-20
  54633.819    0.2647E-20
  54633.888    0.2538E-20
  54633.958    0.2481E-20
  54634.027    0.2468E-20
  54634.096    0.2443E-20
  54634.166    0.2375E-20
  54634.235    0.2308E-20
  54634.304    0.2283E-20
  54634.374    0.2205E-20
  54634.443    0.2164E-20
  54634.513    0.2170E-20
  54634.582    0.2164E-20
  54634.651    0.2128E-20
  54634.721    0.2076E-20
  54634.790    0.2041E-20
  54634.859    0.2036E-20
  54634.929    0.2030E-20
  54634.998    0.2007E-20
  54635.067    0.1995E-20
  54635.137    0.1967E-20
  54635.206    0.1944E-20
  54635.276    0.1933E-20
  54635.345    0.1905E-20
  54635.414    0.1888E-20
  54635.484    0.1888E-20
  54635.553    0.1894E-20
  54635.622    0.1921E-20
  54635.692    0.1910E-20
  54635.761    0.1849E-20
  54635.831    0.1778E-20
  54635.900    0.1697E-20
  54635.969    0.1638E-20
  54636.039    0.1623E-20
  54636.108    0.1622E-20
  54636.177    0.1643E-20
  54636.247    0.1680E-20
  54636.316    0.1707E-20
  54636.385    0.1718E-20
  54636.455    0.1718E-20
  54636.524    0.1718E-20
  54636.594    0.1669E-20
  54636.663    0.1627E-20
  54636.732    0.1643E-20
  54636.802    0.1643E-20
  54636.871    0.1627E-20
  54636.940    0.1606E-20
  54637.010    0.1579E-20
  54637.079    0.1543E-20
  54637.149    0.1527E-20
  54637.218    0.1517E-20
  54637.287    0.1522E-20
  54637.357    0.1527E-20
  54637.426    0.1501E-20
  54637.495    0.1506E-20
  54637.565    0.1491E-20
  54637.634    0.1486E-20
  54637.704    0.1511E-20
  54637.773    0.1547E-20
  54637.842    0.1501E-20
  54637.912    0.1434E-20
  54637.981    0.1389E-20
  54638.050    0.1374E-20
  54638.120    0.1369E-20
  54638.189    0.1379E-20
  54638.259    0.1399E-20
  54638.328    0.1404E-20
  54638.397    0.1388E-20
  54638.467    0.1363E-20
  54638.536    0.1353E-20
  54638.605    0.1353E-20
  54638.675    0.1353E-20
  54638.744    0.1333E-20
  54638.814    0.1308E-20
  54638.883    0.1259E-20
  54638.952    0.1225E-20
  54639.022    0.1172E-20
  54639.091    0.1158E-20
  54639.160    0.1148E-20
  54639.230    0.1153E-20
  54639.299    0.1181E-20
  54639.369    0.1196E-20
  54639.438    0.1186E-20
  54639.507    0.1186E-20
  54639.577    0.1205E-20
  54639.646    0.1205E-20
  54639.715    0.1205E-20
  54639.785    0.1176E-20
  54639.854    0.1157E-20
  54639.924    0.1152E-20
  54639.993    0.1142E-20
  54640.062    0.1133E-20
  54640.132    0.1128E-20
  54640.201    0.1137E-20
  54640.271    0.1123E-20
  54640.340    0.1127E-20
  54640.409    0.1175E-20
  54640.479    0.1194E-20
  54640.548    0.1161E-20
  54640.617    0.1108E-20
  54640.687    0.1038E-20
  54640.756    0.9865E-21
  54640.826    0.9726E-21
  54640.895    0.9955E-21
  54640.964    0.1028E-20
  54641.034    0.1023E-20
  54641.103    0.1023E-20
  54641.173    0.1032E-20
  54641.242    0.1032E-20
  54641.311    0.1009E-20
  54641.381    0.9443E-21
  54641.450    0.9033E-21
  54641.519    0.9077E-21
  54641.589    0.9122E-21
  54641.658    0.8759E-21
  54641.728    0.8533E-21
  54641.797    0.8487E-21
  54641.866    0.8621E-21
  54641.936    0.8530E-21
  54642.005    0.8574E-21
  54642.075    0.9252E-21
  54642.144    0.9525E-21
  54642.213    0.9662E-21
  54642.283    0.9615E-21
  54642.352    0.9752E-21
  54642.421    0.9890E-21
  54642.491    0.9797E-21
  54642.560    0.9796E-21
  54642.630    0.9980E-21
  54642.699    0.9979E-21
  54642.768    0.9886E-21
  54642.838    0.9746E-21
  54642.907    0.9516E-21
  54642.977    0.9013E-21
  54643.046    0.8832E-21
  54643.115    0.8785E-21
  54643.185    0.8649E-21
  54643.254    0.8694E-21
  54643.324    0.8603E-21
  54643.393    0.8288E-21
  54643.462    0.7931E-21
  54643.532    0.7665E-21
  54643.601    0.7576E-21
  54643.671    0.7531E-21
  54643.740    0.7398E-21
  54643.809    0.7573E-21
  54643.879    0.7926E-21
  54643.948    0.8326E-21
  54644.018    0.8504E-21
  54644.087    0.8683E-21
  54644.156    0.8863E-21
  54644.226    0.8907E-21
  54644.295    0.8951E-21
  54644.364    0.8545E-21
  54644.434    0.7919E-21
  54644.503    0.7741E-21
  54644.573    0.7520E-21
  54644.642    0.7387E-21
  54644.711    0.7386E-21
  54644.781    0.7605E-21
  54644.850    0.8047E-21
  54644.920    0.8180E-21
  54644.989    0.8268E-21
  54645.058    0.8178E-21
  54645.128    0.7954E-21
  54645.197    0.7821E-21
  54645.267    0.7731E-21
  54645.336    0.7466E-21
  54645.405    0.7334E-21
  54645.475    0.6896E-21
  54645.544    0.6636E-21
  54645.614    0.6592E-21
  54645.683    0.6505E-21
  54645.752    0.6633E-21
  54645.822    0.6546E-21
  54645.891    0.6631E-21
  54645.961    0.7021E-21
  54646.030    0.7151E-21
  54646.099    0.7150E-21
  54646.169    0.6931E-21
  54646.238    0.6240E-21
  54646.308    0.5685E-21
  54646.377    0.5095E-21
  54646.446    0.4927E-21
  54646.516    0.4801E-21
  54646.585    0.5009E-21
  54646.655    0.5978E-21
  54646.724    0.6405E-21
  54646.793    0.6362E-21
  54646.863    0.6189E-21
  54646.932    0.6103E-21
  54647.002    0.5974E-21
  54647.071    0.5973E-21
  54647.140    0.6271E-21
  54647.210    0.6528E-21
  54647.279    0.6270E-21
  54647.349    0.5970E-21
  54647.418    0.5714E-21
  54647.488    0.5501E-21
  54647.557    0.5500E-21
  54647.626    0.5373E-21
  54647.696    0.5120E-21
  54647.765    0.4703E-21
  54647.835    0.4577E-21
  54647.904    0.5034E-21
  54647.973    0.5580E-21
  54648.043    0.6389E-21
  54648.112    0.6647E-21
  54648.182    0.6087E-21
  54648.251    0.5703E-21
  54648.320    0.5575E-21
  54648.390    0.5701E-21
  54648.459    0.5913E-21
  54648.529    0.6083E-21
  54648.598    0.6339E-21
  54648.667    0.6640E-21
  54648.737    0.6899E-21
  54648.806    0.6811E-21
  54648.876    0.6897E-21
  54648.945    0.6766E-21
  54649.014    0.6420E-21
  54649.084    0.6076E-21
  54649.153    0.5777E-21
  54649.223    0.5479E-21
  54649.292    0.5352E-21
  54649.362    0.5225E-21
  54649.431    0.5224E-21
  54649.500    0.5349E-21
  54649.570    0.5517E-21
  54649.639    0.5601E-21
  54649.709    0.5305E-21
  54649.778    0.5220E-21
  54649.847    0.4968E-21
  54649.917    0.4883E-21
  54649.986    0.4924E-21
  54650.056    0.5091E-21
  54650.125    0.4922E-21
  54650.195    0.4922E-21
  54650.264    0.4796E-21
  54650.333    0.4587E-21
  54650.403    0.4504E-21
  54650.472    0.4668E-21
  54650.542    0.4792E-21
  54650.611    0.5084E-21
  54650.680    0.5250E-21
  54650.750    0.5208E-21
  54650.819    0.4955E-21
  54650.889    0.4497E-21
  54650.958    0.4538E-21
  54651.028    0.4786E-21
  54651.097    0.5287E-21
  54651.166    0.5921E-21
  54651.236    0.5963E-21
  54651.305    0.5495E-21
  54651.375    0.4948E-21
  54651.444    0.4573E-21
  54651.513    0.4780E-21
  54651.583    0.5281E-21
  54651.652    0.5154E-21
  54651.722    0.4653E-21
  54651.791    0.4280E-21
  54651.861    0.4279E-21
  54651.930    0.4360E-21
  54651.999    0.3949E-21
  54652.069    0.3703E-21
  54652.138    0.3661E-21
  54652.208    0.3417E-21
  54652.277    0.3497E-21
  54652.346    0.3903E-21
  54652.416    0.4148E-21
  54652.485    0.4477E-21
  54652.555    0.4559E-21
  54652.624    0.4641E-21
  54652.694    0.4807E-21
  54652.763    0.4847E-21
  54652.832    0.5055E-21
  54652.902    0.5306E-21
  54652.971    0.5221E-21
  54653.041    0.5137E-21
  54653.110    0.5304E-21
  54653.180    0.5093E-21
  54653.249    0.4841E-21
  54653.318    0.4716E-21
  54653.388    0.4466E-21
  54653.457    0.4135E-21
  54653.527    0.4011E-21
  54653.596    0.4175E-21
  54653.666    0.4753E-21
  54653.735    0.5380E-21
  54653.804    0.5718E-21
  54653.874    0.5505E-21
  54653.943    0.4958E-21
  54654.013    0.4417E-21
  54654.082    0.3922E-21
  54654.152    0.3677E-21
  54654.221    0.3432E-21
  54654.290    0.3068E-21
  54654.360    0.2867E-21
  54654.429    0.3066E-21
  54654.499    0.3227E-21
  54654.568    0.3306E-21
  54654.638    0.3508E-21
  54654.707    0.3548E-21
  54654.776    0.3425E-21
  54654.846    0.3505E-21
  54654.915    0.3423E-21
  54654.985    0.3748E-21
  54655.054    0.3910E-21
  54655.124    0.3909E-21
  54655.193    0.3908E-21
  54655.262    0.3703E-21
  54655.332    0.3459E-21
  54655.401    0.3458E-21
  54655.471    0.3619E-21
  54655.540    0.3986E-21
  54655.610    0.4108E-21
  54655.679    0.3861E-21
  54655.748    0.3819E-21
  54655.818    0.3859E-21
  54655.887    0.3859E-21
  54655.957    0.3451E-21
  54656.026    0.2846E-21
  54656.096    0.2486E-21
  54656.165    0.2644E-21
  54656.234    0.2883E-21
  54656.304    0.3244E-21
  54656.373    0.3567E-21
  54656.443    0.3648E-21
  54656.512    0.3647E-21
  54656.582    0.3727E-21
  54656.651    0.3808E-21
  54656.721    0.3848E-21
  54656.790    0.3562E-21
  54656.859    0.3358E-21
  54656.929    0.3317E-21
  54656.998    0.3559E-21
  54657.068    0.3640E-21
  54657.137    0.3639E-21
  54657.207    0.3516E-21
  54657.276    0.3313E-21
  54657.345    0.3393E-21
  54657.415    0.3473E-21
  54657.484    0.3310E-21
  54657.554    0.3148E-21
  54657.623    0.3349E-21
  54657.693    0.3388E-21
  54657.762    0.2984E-21
  54657.832    0.2504E-21
  54657.901    0.2423E-21
  54657.970    0.2701E-21
  54658.040    0.3465E-21
  54658.109    0.3830E-21
  54658.179    0.3666E-21
  54658.248    0.3543E-21
  54658.318    0.3665E-21
  54658.387    0.3868E-21
  54658.456    0.3908E-21
  54658.526    0.3459E-21
  54658.595    0.3175E-21
  54658.665    0.3013E-21
  54658.734    0.2692E-21
  54658.804    0.2891E-21
  54658.873    0.3091E-21
  54658.943    0.3211E-21
  54659.012    0.3169E-21
  54659.081    0.3209E-21
  54659.151    0.3491E-21
  54659.220    0.3776E-21
  54659.290    0.3816E-21
  54659.359    0.3367E-21
  54659.429    0.2883E-21
  54659.498    0.2722E-21
  54659.568    0.2482E-21
  54659.637    0.2441E-21
  54659.706    0.2599E-21
  54659.776    0.2718E-21
  54659.845    0.2757E-21
  54659.915    0.2677E-21
  54659.984    0.2756E-21
  54660.054    0.2955E-21
  54660.123    0.3520E-21
  54660.193    0.4091E-21
  54660.262    0.4296E-21
  54660.331    0.4048E-21
  54660.401    0.3476E-21
  54660.470    0.3151E-21
  54660.540    0.2989E-21
  54660.609    0.3069E-21
  54660.679    0.3068E-21
  54660.748    0.2666E-21
  54660.818    0.2347E-21
  54660.887    0.2346E-21
  54660.957    0.2187E-21
  54661.026    0.1910E-21
  54661.095    0.1518E-21
  54661.165    0.1245E-21
  54661.234    0.1166E-21
  54661.304    0.1398E-21
  54661.373    0.1670E-21
  54661.443    0.1748E-21
  54661.512    0.1865E-21
  54661.582    0.1864E-21
  54661.651    0.1784E-21
  54661.720    0.1705E-21
  54661.790    0.2018E-21
  54661.859    0.2175E-21
  54661.929    0.2135E-21
  54661.998    0.2213E-21
  54662.068    0.2371E-21
  54662.137    0.2889E-21
  54662.207    0.3331E-21
  54662.276    0.3452E-21
  54662.346    0.3329E-21
  54662.415    0.3207E-21
  54662.484    0.3206E-21
  54662.554    0.3246E-21
  54662.623    0.3003E-21
  54662.693    0.2761E-21
  54662.762    0.2720E-21
  54662.832    0.2520E-21
  54662.901    0.2360E-21
  54662.971    0.2478E-21
  54663.040    0.2358E-21
  54663.110    0.1805E-21
  54663.179    0.1804E-21
  54663.248    0.2158E-21
  54663.318    0.2236E-21
  54663.387    0.2394E-21
  54663.457    0.2552E-21
  54663.526    0.2671E-21
  54663.596    0.2630E-21
  54663.665    0.2350E-21
  54663.735    0.2389E-21
  54663.804    0.2388E-21
  54663.874    0.2308E-21
  54663.943    0.2586E-21
  54664.013    0.2625E-21
  54664.082    0.2266E-21
  54664.151    0.2186E-21
  54664.221    0.2027E-21
  54664.290    0.1751E-21
  54664.360    0.1633E-21
  54664.429    0.1710E-21
  54664.499    0.1670E-21
  54664.568    0.1669E-21
  54664.638    0.1982E-21
  54664.707    0.2298E-21
  54664.777    0.2257E-21
  54664.846    0.2098E-21
  54664.916    0.1979E-21
  54664.985    0.1899E-21
  54665.054    0.2016E-21
  54665.124    0.1897E-21
  54665.193    0.1857E-21
  54665.263    0.1778E-21
  54665.332    0.1738E-21
  54665.402    0.1933E-21
  54665.471    0.2248E-21
  54665.541    0.2526E-21
  54665.610    0.2525E-21
  54665.680    0.2484E-21
  54665.749    0.2245E-21
  54665.819    0.2125E-21
  54665.888    0.2203E-21
  54665.957    0.2202E-21
  54666.027    0.2123E-21
  54666.096    0.2201E-21
  54666.166    0.2200E-21
  54666.235    0.2080E-21
  54666.305    0.2079E-21
  54666.374    0.2039E-21
  54666.444    0.2236E-21
  54666.513    0.2235E-21
  54666.583    0.1997E-21
  54666.652    0.2115E-21
  54666.722    0.2590E-21
  54666.791    0.2830E-21
  54666.861    0.2469E-21
  54666.930    0.2230E-21
  54667.000    0.2229E-21
  54667.069    0.2546E-21
  54667.138    0.2946E-21
  54667.208    0.3066E-21
  54667.277    0.2984E-21
  54667.347    0.2823E-21
  54667.416    0.2422E-21
  54667.486    0.2342E-21
  54667.555    0.2261E-21
  54667.625    0.2142E-21
  54667.694    0.2101E-21
  54667.764    0.2061E-21
  54667.833    0.2377E-21
  54667.903    0.2535E-21
  54667.972    0.2614E-21
  54668.042    0.2574E-21
  54668.111    0.2573E-21
  54668.181    0.2333E-21
  54668.250    0.2055E-21
  54668.319    0.2252E-21
  54668.389    0.2291E-21
  54668.458    0.2290E-21
  54668.528    0.2249E-21
  54668.597    0.1971E-21
  54668.667    0.1617E-21
  54668.736    0.1033E-21
  54668.806    0.4934E-22
  54668.875    0.2637E-22
  54668.945    0.6449E-22
  54669.014    0.9518E-22
  54669.084    0.1416E-21
  54669.153    0.1689E-21
  54669.223    0.1688E-21
  54669.292    0.1687E-21
  54669.362    0.1530E-21
  54669.431    0.1334E-21
  54669.501    0.9843E-22
  54669.570    0.7906E-22
  54669.640    0.9053E-22
  54669.709    0.1526E-21
  54669.778    0.1917E-21
  54669.848    0.1995E-21
  54669.917    0.2034E-21
  54669.987    0.1836E-21
  54670.056    0.1756E-21
  54670.126    0.1559E-21
  54670.195    0.1363E-21
  54670.265    0.1129E-21
  54670.334    0.1206E-21
  54670.404    0.1244E-21
  54670.473    0.1516E-21
  54670.543    0.1750E-21
  54670.612    0.1671E-21
  54670.682    0.1241E-21
  54670.751    0.5836E-22
  54670.821    0.2390E-22
  54670.890    0.2381E-22
  54670.960    0.2753E-22
  54671.029    0.5801E-22
  54671.099    0.9254E-22
  54671.168    0.9631E-22
  54671.238    0.9236E-22
  54671.307    0.8456E-22
  54671.377    0.8447E-22
  54671.446    0.8824E-22
  54671.516    0.9974E-22
  54671.585    0.1151E-21
  54671.654    0.1384E-21
  54671.724    0.1735E-21
  54671.793    0.1773E-21
  54671.863    0.1694E-21
  54671.932    0.1693E-21
  54672.002    0.1418E-21
  54672.071    0.9516E-22
  54672.141    0.7580E-22
  54672.210    0.9113E-22
  54672.280    0.1298E-21
  54672.349    0.1570E-21
  54672.419    0.1805E-21
  54672.488    0.1804E-21
  54672.558    0.1961E-21
  54672.627    0.2436E-21
  54672.697    0.2674E-21
  54672.766    0.2634E-21
  54672.836    0.2393E-21
  54672.905    0.2552E-21
  54672.975    0.2391E-21
  54673.044    0.2430E-21
  54673.114    0.2469E-21
  54673.183    0.2349E-21
  54673.253    0.1794E-21
  54673.322    0.1597E-21
  54673.392    0.1518E-21
  54673.461    0.1478E-21
  54673.531    0.1634E-21
  54673.600    0.2066E-21
  54673.670    0.2184E-21
  54673.739    0.1749E-21
  54673.809    0.1201E-21
  54673.878    0.7744E-22
  54673.948    0.3136E-22
  54674.017    0.8524E-24
  54674.087    0.3118E-22
  54674.156    0.5787E-22
  54674.226    0.6162E-22
  54674.295    0.7691E-22
  54674.365    0.1272E-21
  54674.434    0.1661E-21
  54674.504    0.1778E-21
  54674.573    0.1699E-21
  54674.643    0.1620E-21
  54674.712    0.1658E-21
  54674.782    0.1854E-21
  54674.851    0.1971E-21
  54674.921    0.2208E-21
  54674.990    0.2685E-21
  54675.060    0.2604E-21
  54675.129    0.2444E-21
  54675.198    0.2284E-21
  54675.268    0.2243E-21
  54675.337    0.2202E-21
  54675.407    0.1806E-21
  54675.476    0.1452E-21
  54675.546    0.1412E-21
  54675.615    0.1373E-21
  54675.685    0.1255E-21
  54675.754    0.1176E-21
  54675.824    0.4809E-22
  54675.893    0.6056E-23
  54675.963    0.2118E-22
  54676.032    0.4017E-22
  54676.102    0.4773E-22
  54676.171    0.5148E-22
  54676.241    0.8601E-22
  54676.310    0.1053E-21
  54676.380    0.1519E-21
  54676.449    0.1714E-21
  54676.519    0.1635E-21
  54676.588    0.1595E-21
  54676.658    0.1594E-21
  54676.727    0.1593E-21
  54676.797    0.1514E-21
  54676.866    0.1396E-21
  54676.936    0.1278E-21
  54677.005    0.1121E-21
  54677.075    0.1004E-21
  54677.144    0.9259E-22
  54677.214    0.9637E-22
  54677.283    0.1157E-21
  54677.353    0.1117E-21
  54677.422    0.8065E-22
  54677.492    0.6131E-22
  54677.562    0.8433E-22
  54677.631    0.7267E-22
  54677.701    0.4570E-22
  54677.770    0.1507E-22
  54677.840   -0.1158E-22
  54677.909   -0.1167E-22
  54677.979   -0.3893E-24
  54678.048    0.7115E-23
  54678.118    0.3752E-22
  54678.187    0.5659E-22
  54678.257    0.6418E-22
  54678.326    0.6794E-22
  54678.396    0.9100E-22
  54678.465    0.7161E-22
  54678.535    0.4081E-22
  54678.604    0.4838E-22
  54678.674    0.2917E-22
  54678.743    0.1003E-22
  54678.813    0.1375E-22
  54678.882    0.2891E-22
  54678.952    0.5966E-23
  54679.021   -0.3573E-22
  54679.091   -0.4335E-22
  54679.160   -0.4344E-22
  54679.230   -0.4729E-22
  54679.299   -0.4362E-22
  54679.369   -0.5122E-22
  54679.438   -0.4003E-22
  54679.508   -0.2126E-22
  54679.577   -0.6214E-23
  54679.647    0.3557E-22
  54679.716    0.4314E-22
  54679.786    0.3922E-22
  54679.855    0.5446E-22
  54679.925    0.6976E-22
  54679.994    0.9283E-22
  54680.064    0.1005E-21
  54680.133    0.1043E-21
  54680.203    0.1042E-21
  54680.272    0.8088E-22
  54680.342    0.6538E-22
  54680.411    0.7685E-22
  54680.481    0.6135E-22
  54680.550    0.3060E-22
  54680.620    0.4698E-25
  54680.689   -0.4143E-25
  54680.759    0.1127E-22
  54680.828    0.3580E-23
  54680.898    0.1110E-22
  54680.967    0.1862E-22
  54681.037    0.2235E-22
  54681.107    0.1845E-22
  54681.176    0.1074E-22
  54681.246    0.3737E-22
  54681.315    0.8342E-22
  54681.385    0.1221E-21
  54681.454    0.1376E-21
  54681.524    0.1571E-21
  54681.593    0.1688E-21
  54681.663    0.1924E-21
  54681.732    0.2161E-21
  54681.802    0.2081E-21
  54681.871    0.1803E-21
  54681.941    0.1409E-21
  54682.010    0.1019E-21
  54682.080    0.8631E-22
  54682.116    0.9009E-22
